time,mstime,acc_x,acc_y,acc_z
2017-02-20 02:56:00,1487534160000,+0.3,-0.2,-0.9
2017-02-20 02:56:00,1487534160000,+0.2,-0.1,-0.9
2017-02-20 02:56:00,1487534160000,+0.3,-0.0,-0.9
2017-02-20 02:56:00,1487534160000,+0.2,-0.0,-0.9
2017-02-20 02:56:00,1487534160000,+0.1,-0.1,-1.1
2017-02-20 02:56:00,1487534160000,+0.2,-0.0,-0.9
2017-02-20 02:56:00,1487534160000,-0.1,-0.3,-0.9
2017-02-20 02:56:00,1487534160000,-0.0,-0.4,-0.9
2017-02-20 02:56:00,1487534160000,-0.8,-0.6,-0.1
2017-02-20 02:56:00,1487534160000,-0.2,-0.6,-0.8
2017-02-20 02:56:00,1487534160000,+0.4,+0.0,-0.7
2017-02-20 02:56:00,1487534160000,+0.4,-0.4,-0.7
2017-02-20 02:56:00,1487534160000,-0.2,-0.4,-0.8
2017-02-20 02:56:00,1487534160000,-0.5,-0.8,+0.6
2017-02-20 02:56:00,1487534160000,-0.2,-0.3,-0.9
2017-02-20 02:56:00,1487534160000,-0.5,-0.4,-0.7
2017-02-20 02:56:00,1487534160000,-0.5,-0.4,-0.7
2017-02-20 02:56:00,1487534160000,-0.9,-0.4,-0.2
2017-02-20 02:56:00,1487534160000,-0.4,-0.4,-0.8
2017-02-20 02:56:00,1487534160000,-0.1,-0.5,-1.0
2017-02-20 02:56:00,1487534160000,-0.4,-0.4,-0.8
2017-02-20 02:56:00,1487534160000,-0.4,-0.4,-0.8
2017-02-20 02:56:00,1487534160000,-0.0,-0.3,-1.1
2017-02-20 02:56:00,1487534160000,-0.3,-0.3,-0.8
2017-02-20 02:56:00,1487534160000,-0.4,-0.4,-0.8
2017-02-20 02:56:00,1487534160000,-0.5,-0.6,-0.1
2017-02-20 02:56:00,1487534160000,-0.2,-0.6,-0.7
2017-02-20 02:56:00,1487534160000,-0.3,-0.6,-0.7
2017-02-20 02:56:00,1487534160000,-0.4,-0.6,-0.6
2017-02-20 02:56:00,1487534160000,-0.4,-0.6,-0.6
2017-02-20 02:56:00,1487534160000,-0.4,-0.6,-0.6
2017-02-20 02:57:00,1487534220000,-0.4,-0.5,-0.7
2017-02-20 02:57:00,1487534220000,-0.5,-0.5,-0.7
2017-02-20 02:57:00,1487534220000,-0.7,-0.5,+0.3
2017-02-20 02:57:00,1487534220000,-0.8,-0.5,+0.2
2017-02-20 02:57:00,1487534220000,-0.8,-0.5,+0.1
2017-02-20 02:57:00,1487534220000,-0.8,-0.5,+0.1
2017-02-20 02:57:00,1487534220000,-0.8,-0.5,+0.1
2017-02-20 02:57:00,1487534220000,-0.8,-0.5,+0.1
2017-02-20 02:57:00,1487534220000,-0.8,-0.5,+0.1
2017-02-20 02:57:00,1487534220000,-0.8,-0.5,+0.1
2017-02-20 02:57:00,1487534220000,-0.8,-0.5,+0.3
2017-02-20 02:57:00,1487534220000,-0.8,-0.5,+0.2
2017-02-20 02:57:00,1487534220000,-0.8,-0.5,+0.2
2017-02-20 02:57:00,1487534220000,-0.8,-0.5,+0.2
2017-02-20 02:57:00,1487534220000,-1.2,-0.6,+0.2
2017-02-20 02:57:00,1487534220000,-0.0,-0.2,-0.9
2017-02-20 02:57:00,1487534220000,-0.5,-0.4,+0.8
2017-02-20 02:57:00,1487534220000,-0.5,-0.4,+0.8
2017-02-20 02:57:00,1487534220000,-0.9,-0.4,+0.2
2017-02-20 02:57:00,1487534220000,-0.4,-0.6,-0.7
2017-02-20 02:57:00,1487534220000,-0.6,-0.6,-0.6
2017-02-20 02:57:00,1487534220000,-0.6,-0.6,-0.6
2017-02-20 02:57:00,1487534220000,-0.6,-0.4,-0.7
2017-02-20 02:57:00,1487534220000,-0.8,-0.4,+0.3
2017-02-20 02:57:00,1487534220000,-0.8,-0.5,+0.4
2017-02-20 02:57:00,1487534220000,-0.8,-0.4,+0.3
2017-02-20 02:57:00,1487534220000,-0.8,-0.5,+0.3
2017-02-20 02:57:00,1487534220000,-0.9,-0.5,+0.1
2017-02-20 02:57:00,1487534220000,-0.7,-0.1,-0.8
2017-02-20 02:57:00,1487534220000,-0.0,-0.7,-0.2
2017-02-20 02:57:00,1487534220000,-0.4,-0.4,-0.9
2017-02-20 02:57:00,1487534220000,+0.6,-0.6,-0.3
2017-02-20 02:57:00,1487534220000,-0.4,-0.2,-0.8
2017-02-20 02:57:00,1487534220000,-0.8,-0.5,+0.3
2017-02-20 02:57:00,1487534220000,-0.6,-0.4,-0.4
2017-02-20 02:57:00,1487534220000,-0.5,-0.9,+0.4
2017-02-20 02:57:00,1487534220000,-0.7,+0.1,-0.5
2017-02-20 02:57:00,1487534220000,+0.4,-0.1,-0.8
2017-02-20 02:57:00,1487534220000,-0.5,-0.2,-0.9
2017-02-20 02:57:00,1487534220000,-0.4,-0.1,-0.9
2017-02-20 02:57:00,1487534220000,-0.4,-0.1,-0.8
2017-02-20 02:57:00,1487534220000,-0.4,-0.2,-0.8
2017-02-20 02:57:00,1487534220000,-0.4,-0.2,-0.8
2017-02-20 02:57:00,1487534220000,-0.4,-0.2,-0.8
2017-02-20 02:58:00,1487534280000,-0.4,-0.1,-0.8
2017-02-20 02:58:00,1487534280000,-0.1,+0.0,-0.9
2017-02-20 02:58:00,1487534280000,+0.2,-0.1,-0.9
2017-02-20 02:58:00,1487534280000,+0.4,-0.0,-0.4
2017-02-20 02:58:00,1487534280000,+0.4,-0.2,-0.9
2017-02-20 02:58:00,1487534280000,+0.5,-0.2,-0.8
2017-02-20 02:58:00,1487534280000,+0.4,-0.1,-0.9
2017-02-20 02:58:00,1487534280000,-0.4,+0.1,-0.8
2017-02-20 02:58:00,1487534280000,-0.3,-0.0,-0.9
2017-02-20 02:58:00,1487534280000,-0.4,-0.1,-0.9
2017-02-20 02:58:00,1487534280000,-0.2,-0.0,-0.9
2017-02-20 02:58:00,1487534280000,-0.2,-0.2,-1.0
2017-02-20 02:58:00,1487534280000,-0.1,-0.2,-1.0
2017-02-20 02:58:00,1487534280000,-0.4,-0.2,-0.8
2017-02-20 02:58:00,1487534280000,-0.4,-0.1,-0.9
2017-02-20 02:58:00,1487534280000,+0.0,-0.3,-1.1
2017-02-20 02:58:00,1487534280000,-0.4,-0.1,-0.8
2017-02-20 02:58:00,1487534280000,+0.4,-0.9,-0.3
2017-02-20 02:58:00,1487534280000,-0.4,-0.2,-0.8
2017-02-20 02:58:00,1487534280000,-0.4,-0.6,-0.4
2017-02-20 02:58:00,1487534280000,-0.4,-0.9,-0.1
2017-02-20 02:58:00,1487534280000,-0.3,-1.0,-0.1
2017-02-20 02:58:00,1487534280000,-0.5,-0.9,-0.0
2017-02-20 02:58:00,1487534280000,-0.3,-1.0,+0.2
2017-02-20 02:58:00,1487534280000,-0.5,-0.2,-0.8
2017-02-20 02:58:00,1487534280000,-0.5,-0.2,-0.8
2017-02-20 02:58:00,1487534280000,-0.5,-0.4,-0.9
2017-02-20 02:58:00,1487534280000,-0.5,-0.2,-0.8
2017-02-20 02:58:00,1487534280000,-0.1,-0.3,-1.0
2017-02-20 02:58:00,1487534280000,-0.5,-0.3,-0.7
2017-02-20 02:58:00,1487534280000,-0.6,-0.4,-0.7
2017-02-20 02:58:00,1487534280000,-0.6,-0.4,-0.6
2017-02-20 02:58:00,1487534280000,-0.6,-0.4,-0.6
2017-02-20 02:58:00,1487534280000,-0.8,-0.3,-0.6
2017-02-20 02:58:00,1487534280000,-0.4,-0.3,-0.8
2017-02-20 02:58:00,1487534280000,-0.3,-0.3,-0.9
2017-02-20 02:58:00,1487534280000,-0.4,-0.2,-0.9
2017-02-20 02:58:00,1487534280000,-0.5,-0.2,-0.8
2017-02-20 02:58:00,1487534280000,-0.4,-0.2,-0.8
2017-02-20 02:58:00,1487534280000,-0.4,-0.2,-0.8
2017-02-20 02:58:00,1487534280000,-0.4,-0.2,-0.8
2017-02-20 02:58:00,1487534280000,-0.5,-0.2,-0.8
2017-02-20 02:58:00,1487534280000,-0.4,-0.2,-0.8
2017-02-20 02:59:00,1487534340000,-0.4,-0.4,-0.9
2017-02-20 02:59:00,1487534340000,-0.3,-0.3,-0.9
2017-02-20 02:59:00,1487534340000,-0.1,-0.2,-0.9
2017-02-20 02:59:00,1487534340000,-0.7,+0.0,-0.9
2017-02-20 02:59:00,1487534340000,-0.9,-0.2,+0.0
2017-02-20 02:59:00,1487534340000,-0.4,-0.2,-0.8
2017-02-20 02:59:00,1487534340000,-0.3,-0.2,-0.9
2017-02-20 02:59:00,1487534340000,-0.5,+0.0,-0.8
2017-02-20 02:59:00,1487534340000,-0.2,-0.2,-1.0
2017-02-20 02:59:00,1487534340000,-0.2,-0.5,-0.7
2017-02-20 02:59:00,1487534340000,-0.4,-0.2,-0.8
2017-02-20 02:59:00,1487534340000,-0.4,-0.3,-0.8
2017-02-20 02:59:00,1487534340000,-0.4,-0.3,-0.8
2017-02-20 02:59:00,1487534340000,-0.5,-0.3,-0.8
2017-02-20 02:59:00,1487534340000,-0.4,-0.3,-0.8
2017-02-20 02:59:00,1487534340000,-0.5,-0.3,-0.8
2017-02-20 02:59:00,1487534340000,-0.4,-0.2,-0.8
2017-02-20 02:59:00,1487534340000,-0.4,-0.2,-0.9
2017-02-20 02:59:00,1487534340000,-0.4,-0.1,-0.9
2017-02-20 02:59:00,1487534340000,-0.5,-0.1,-0.7
2017-02-20 02:59:00,1487534340000,-0.3,-0.1,-0.9
2017-02-20 02:59:00,1487534340000,-0.4,-0.1,-0.9
2017-02-20 02:59:00,1487534340000,-0.3,-0.1,-0.9
2017-02-20 02:59:00,1487534340000,-0.4,-0.1,-0.9
2017-02-20 02:59:00,1487534340000,-0.7,-0.2,-0.4
2017-02-20 02:59:00,1487534340000,-0.4,-0.1,-0.9
2017-02-20 02:59:00,1487534340000,-0.4,-0.1,-0.8
2017-02-20 02:59:00,1487534340000,-0.4,-0.1,-0.8
2017-02-20 02:59:00,1487534340000,-0.4,-0.1,-0.8
2017-02-20 02:59:00,1487534340000,-0.4,-0.1,-0.8
2017-02-20 02:59:00,1487534340000,-0.4,-0.1,-0.8
2017-02-20 02:59:00,1487534340000,-0.4,-0.1,-0.8
2017-02-20 02:59:00,1487534340000,-0.4,-0.1,-0.8
2017-02-20 02:59:00,1487534340000,-0.4,-0.2,-0.8
2017-02-20 02:59:00,1487534340000,-0.4,-0.1,-0.8
2017-02-20 02:59:00,1487534340000,-0.4,-0.1,-0.8
2017-02-20 02:59:00,1487534340000,-0.4,-0.2,-0.8
2017-02-20 03:00:00,1487534400000,-0.4,-0.2,-0.8
2017-02-20 03:00:00,1487534400000,-0.4,-0.2,-0.8
2017-02-20 03:00:00,1487534400000,-0.4,-0.2,-0.8
2017-02-20 03:00:00,1487534400000,-0.4,-0.2,-0.8
2017-02-20 03:00:00,1487534400000,-0.4,-0.2,-0.8
2017-02-20 03:00:00,1487534400000,-0.4,-0.2,-0.8
2017-02-20 03:00:00,1487534400000,-0.4,-0.2,-0.8
2017-02-20 03:00:00,1487534400000,-0.4,-0.2,-0.8
2017-02-20 03:00:00,1487534400000,-0.4,-0.2,-0.8
2017-02-20 03:00:00,1487534400000,-0.4,-0.2,-0.8
2017-02-20 03:00:00,1487534400000,-0.4,-0.2,-0.8
2017-02-20 03:00:00,1487534400000,-0.4,-0.2,-0.8
2017-02-20 03:00:00,1487534400000,-0.4,-0.2,-0.8
2017-02-20 03:00:00,1487534400000,-0.4,-0.2,-0.8
2017-02-20 03:00:00,1487534400000,-0.4,-0.2,-0.8
2017-02-20 03:00:00,1487534400000,-0.4,-0.2,-0.8
2017-02-20 03:00:00,1487534400000,-0.4,-0.2,-0.8
2017-02-20 03:00:00,1487534400000,-0.4,-0.2,-0.8
2017-02-20 03:00:00,1487534400000,-0.4,-0.1,-0.8
2017-02-20 03:00:00,1487534400000,-0.1,-0.2,-0.9
2017-02-20 03:00:00,1487534400000,-0.2,-0.2,-0.9
2017-02-20 03:00:00,1487534400000,-0.2,-0.2,-0.9
2017-02-20 03:00:00,1487534400000,-0.2,-0.2,-0.9
2017-02-20 03:00:00,1487534400000,-0.2,-0.1,-1.0
2017-02-20 03:00:00,1487534400000,-0.3,-0.2,-0.9
2017-02-20 03:00:00,1487534400000,-0.2,-0.2,-0.9
2017-02-20 03:00:00,1487534400000,-0.2,-0.1,-0.9
2017-02-20 03:00:00,1487534400000,-0.2,-0.2,-0.9
2017-02-20 03:00:00,1487534400000,-0.2,-0.1,-0.7
2017-02-20 03:00:00,1487534400000,-0.3,-0.3,-0.8
2017-02-20 03:00:00,1487534400000,-0.4,-0.3,-0.8
2017-02-20 03:00:00,1487534400000,-0.4,-0.4,-0.6
2017-02-20 03:00:00,1487534400000,-0.7,-0.3,+0.1
2017-02-20 03:00:00,1487534400000,-0.5,+0.1,-0.3
2017-02-20 03:00:00,1487534400000,-0.4,-0.0,-0.8
2017-02-20 03:00:00,1487534400000,-0.4,-0.1,-0.9
2017-02-20 03:00:00,1487534400000,-0.4,-0.1,-0.9
2017-02-20 03:00:00,1487534400000,-0.4,-0.1,-0.9
2017-02-20 03:00:00,1487534400000,-0.4,-0.1,-0.9
2017-02-20 03:00:00,1487534400000,-0.4,-0.1,-0.8
2017-02-20 03:00:00,1487534400000,-0.4,-0.1,-0.9
2017-02-20 03:00:00,1487534400000,-1.0,-0.3,+0.3
2017-02-20 03:00:00,1487534400000,-0.4,-0.1,-0.8
2017-02-20 03:01:00,1487534460000,-0.3,-0.1,-0.9
2017-02-20 03:01:00,1487534460000,-0.6,-0.2,+0.4
2017-02-20 03:01:00,1487534460000,-0.4,-0.1,-0.9
2017-02-20 03:01:00,1487534460000,+0.6,-0.5,-0.4
2017-02-20 03:01:00,1487534460000,-0.4,-0.9,-0.2
2017-02-20 03:01:00,1487534460000,-0.4,-0.1,-0.8
2017-02-20 03:01:00,1487534460000,-0.5,-0.2,-0.8
2017-02-20 03:01:00,1487534460000,-0.3,-0.1,-0.9
2017-02-20 03:01:00,1487534460000,-0.4,-0.2,-0.9
2017-02-20 03:01:00,1487534460000,-0.4,-0.1,-0.9
2017-02-20 03:01:00,1487534460000,-0.4,-0.1,-0.8
2017-02-20 03:01:00,1487534460000,-0.4,-0.1,-0.8
2017-02-20 03:01:00,1487534460000,-0.4,-0.2,-0.9
2017-02-20 03:01:00,1487534460000,-0.4,-0.1,-0.8
2017-02-20 03:01:00,1487534460000,-0.4,-0.1,-0.9
2017-02-20 03:01:00,1487534460000,-0.4,-0.2,-0.8
2017-02-20 03:01:00,1487534460000,-0.4,-0.2,-0.8
2017-02-20 03:01:00,1487534460000,-0.4,-0.2,-0.8
2017-02-20 03:01:00,1487534460000,-0.4,-0.2,-0.8
2017-02-20 03:01:00,1487534460000,-0.4,-0.2,-0.8
2017-02-20 03:01:00,1487534460000,-0.4,-0.2,-0.9
2017-02-20 03:01:00,1487534460000,-0.4,-0.2,-0.9
2017-02-20 03:01:00,1487534460000,-0.4,-0.2,-0.9
2017-02-20 03:01:00,1487534460000,-0.4,-0.2,-0.9
2017-02-20 03:01:00,1487534460000,-0.4,-0.2,-0.9
2017-02-20 03:01:00,1487534460000,-0.4,-0.2,-0.8
2017-02-20 03:01:00,1487534460000,-0.4,-0.2,-0.8
2017-02-20 03:01:00,1487534460000,-0.4,-0.2,-0.8
2017-02-20 03:01:00,1487534460000,-0.4,-0.2,-0.8
2017-02-20 03:01:00,1487534460000,-0.4,-0.2,-0.9
2017-02-20 03:01:00,1487534460000,-0.4,-0.2,-0.9
2017-02-20 03:01:00,1487534460000,-0.4,-0.2,-0.8
2017-02-20 03:01:00,1487534460000,-0.4,-0.2,-0.8
2017-02-20 03:01:00,1487534460000,-0.4,-0.2,-0.8
2017-02-20 03:01:00,1487534460000,-0.4,-0.2,-0.8
2017-02-20 03:01:00,1487534460000,-0.4,-0.2,-0.8
2017-02-20 03:01:00,1487534460000,-0.4,-0.2,-0.8
2017-02-20 03:01:00,1487534460000,-0.4,-0.2,-0.8
2017-02-20 03:01:00,1487534460000,-0.4,-0.2,-0.8
2017-02-20 03:02:00,1487534520000,-0.4,-0.2,-0.8
2017-02-20 03:02:00,1487534520000,-0.4,-0.2,-0.8
2017-02-20 03:02:00,1487534520000,-0.4,-0.2,-0.8
2017-02-20 03:02:00,1487534520000,-0.4,-0.2,-0.8
2017-02-20 03:02:00,1487534520000,-0.4,-0.2,-0.8
2017-02-20 03:02:00,1487534520000,-0.4,-0.2,-0.8
2017-02-20 03:02:00,1487534520000,-0.4,-0.2,-0.8
2017-02-20 03:02:00,1487534520000,-0.4,-0.2,-0.8
2017-02-20 03:02:00,1487534520000,-0.4,-0.2,-0.8
2017-02-20 03:02:00,1487534520000,-0.4,-0.2,-0.8
2017-02-20 03:02:00,1487534520000,-0.4,-0.2,-0.8
2017-02-20 03:02:00,1487534520000,-0.4,-0.2,-0.8
2017-02-20 03:02:00,1487534520000,-0.4,-0.2,-0.8
2017-02-20 03:02:00,1487534520000,-0.4,-0.2,-0.8
2017-02-20 03:02:00,1487534520000,-0.5,-0.2,-0.8
2017-02-20 03:02:00,1487534520000,-0.4,-0.2,-0.8
2017-02-20 03:02:00,1487534520000,-0.3,-0.1,-0.9
2017-02-20 03:02:00,1487534520000,-0.4,-0.1,-0.9
2017-02-20 03:02:00,1487534520000,-0.4,-0.1,-0.9
2017-02-20 03:02:00,1487534520000,-0.3,-0.2,-0.8
2017-02-20 03:02:00,1487534520000,-0.4,-0.2,-0.9
2017-02-20 03:02:00,1487534520000,-0.4,-0.1,-0.9
2017-02-20 03:02:00,1487534520000,-0.4,-0.1,-0.9
2017-02-20 03:02:00,1487534520000,-0.4,-0.1,-0.9
2017-02-20 03:02:00,1487534520000,-0.4,-0.1,-0.8
2017-02-20 03:02:00,1487534520000,-0.4,-0.2,-0.9
2017-02-20 03:02:00,1487534520000,-0.4,-0.1,-0.9
2017-02-20 03:02:00,1487534520000,-0.4,-0.2,-0.8
2017-02-20 03:02:00,1487534520000,-0.4,-0.1,-0.9
2017-02-20 03:02:00,1487534520000,-0.4,-0.1,-0.8
2017-02-20 03:02:00,1487534520000,-0.4,-0.1,-0.9
2017-02-20 03:02:00,1487534520000,-0.4,-0.2,-0.9
2017-02-20 03:02:00,1487534520000,-0.4,-0.2,-0.9
2017-02-20 03:02:00,1487534520000,-0.4,-0.2,-0.9
2017-02-20 03:02:00,1487534520000,-0.4,-0.2,-0.8
2017-02-20 03:02:00,1487534520000,-0.4,-0.2,-0.8
2017-02-20 03:02:00,1487534520000,-0.4,-0.2,-0.8
2017-02-20 03:02:00,1487534520000,-0.4,-0.2,-0.8
2017-02-20 03:02:00,1487534520000,-0.4,-0.2,-0.8
2017-02-20 03:02:00,1487534520000,-0.4,-0.2,-0.8
2017-02-20 03:02:00,1487534520000,-0.4,-0.2,-0.8
2017-02-20 03:02:00,1487534520000,-0.4,-0.2,-0.8
2017-02-20 03:03:00,1487534580000,-0.1,-1.0,-0.0
2017-02-20 03:03:00,1487534580000,-0.5,-0.2,-0.8
2017-02-20 03:03:00,1487534580000,-0.5,-0.2,-0.8
2017-02-20 03:03:00,1487534580000,-0.4,-0.2,-0.8
2017-02-20 03:03:00,1487534580000,-0.5,-0.2,-0.8
2017-02-20 03:03:00,1487534580000,-0.4,-0.2,-0.8
2017-02-20 03:03:00,1487534580000,-0.4,-0.2,-0.8
2017-02-20 03:03:00,1487534580000,-0.5,-0.2,-0.8
2017-02-20 03:03:00,1487534580000,-0.5,-0.2,-0.8
2017-02-20 03:03:00,1487534580000,-0.4,-0.2,-0.8
2017-02-20 03:03:00,1487534580000,-0.3,-0.0,-0.9
2017-02-20 03:03:00,1487534580000,-0.4,-0.1,-0.8
2017-02-20 03:03:00,1487534580000,-0.4,-0.2,-0.8
2017-02-20 03:03:00,1487534580000,-0.4,-0.2,-0.8
2017-02-20 03:03:00,1487534580000,-0.4,-0.2,-0.8
2017-02-20 03:03:00,1487534580000,-0.4,-0.2,-0.8
2017-02-20 03:03:00,1487534580000,-0.4,-0.2,-0.8
2017-02-20 03:03:00,1487534580000,-0.5,-0.2,-0.8
2017-02-20 03:03:00,1487534580000,-0.5,-0.2,-0.8
2017-02-20 03:03:00,1487534580000,-0.5,-0.2,-0.8
2017-02-20 03:03:00,1487534580000,-0.5,-0.2,-0.8
2017-02-20 03:03:00,1487534580000,-0.5,-0.2,-0.8
2017-02-20 03:03:00,1487534580000,-0.5,-0.2,-0.8
2017-02-20 03:03:00,1487534580000,-0.5,-0.2,-0.8
2017-02-20 03:03:00,1487534580000,-0.5,-0.2,-0.8
2017-02-20 03:03:00,1487534580000,-0.5,-0.2,-0.8
2017-02-20 03:03:00,1487534580000,-0.4,-0.2,-0.8
2017-02-20 03:03:00,1487534580000,-0.5,-0.2,-0.8
2017-02-20 03:03:00,1487534580000,-0.5,-0.2,-0.8
2017-02-20 03:03:00,1487534580000,-0.4,-0.2,-0.8
2017-02-20 03:03:00,1487534580000,-0.5,-0.2,-0.8
2017-02-20 03:03:00,1487534580000,-0.5,-0.2,-0.8
2017-02-20 03:03:00,1487534580000,-0.5,-0.2,-0.8
2017-02-20 03:03:00,1487534580000,-0.5,-0.2,-0.8
2017-02-20 03:03:00,1487534580000,-0.4,-0.2,-0.8
2017-02-20 03:03:00,1487534580000,-0.5,-0.2,-0.8
2017-02-20 03:03:00,1487534580000,-0.5,-0.2,-0.8
2017-02-20 03:03:00,1487534580000,-0.5,-0.2,-0.8
2017-02-20 03:03:00,1487534580000,-0.5,-0.2,-0.8
2017-02-20 03:03:00,1487534580000,-0.5,-0.2,-0.8
2017-02-20 03:03:00,1487534580000,-0.4,-0.2,-0.8
2017-02-20 03:03:00,1487534580000,-0.4,-0.2,-0.8
2017-02-20 03:03:00,1487534580000,-0.5,-0.2,-0.8
2017-02-20 03:03:00,1487534580000,-0.4,-0.3,-0.8
2017-02-20 03:03:00,1487534580000,-0.2,-0.2,-0.8
2017-02-20 03:04:00,1487534640000,-0.2,-0.4,-0.7
2017-02-20 03:04:00,1487534640000,-0.4,-0.3,-0.8
2017-02-20 03:04:00,1487534640000,-0.5,-0.3,-0.8
2017-02-20 03:04:00,1487534640000,-0.4,-0.3,-0.8
2017-02-20 03:04:00,1487534640000,-0.5,-0.3,-0.8
2017-02-20 03:04:00,1487534640000,-0.5,-0.3,-0.8
2017-02-20 03:04:00,1487534640000,-0.4,-0.3,-0.8
2017-02-20 03:04:00,1487534640000,-0.5,-0.3,-0.8
2017-02-20 03:04:00,1487534640000,-0.4,-0.3,-0.8
2017-02-20 03:04:00,1487534640000,+0.4,-0.9,-0.0
2017-02-20 03:04:00,1487534640000,+0.4,-1.1,+0.2
2017-02-20 03:04:00,1487534640000,-0.9,+0.3,-1.0
2017-02-20 03:04:00,1487534640000,-0.4,-0.3,-0.8
2017-02-20 03:04:00,1487534640000,-0.4,-0.3,-0.8
2017-02-20 03:04:00,1487534640000,-0.4,-0.3,-0.8
2017-02-20 03:04:00,1487534640000,-0.4,-0.3,-0.8
2017-02-20 03:04:00,1487534640000,-0.4,-0.3,-0.8
2017-02-20 03:04:00,1487534640000,-0.4,-0.3,-0.8
2017-02-20 03:04:00,1487534640000,-0.4,-0.4,-0.8
2017-02-20 03:04:00,1487534640000,-0.4,-0.4,-0.8
2017-02-20 03:04:00,1487534640000,-0.4,-0.4,-0.8
2017-02-20 03:04:00,1487534640000,-0.0,-0.9,-0.2
2017-02-20 03:04:00,1487534640000,-1.3,+0.0,-0.8
2017-02-20 03:04:00,1487534640000,-0.4,-0.4,-0.8
2017-02-20 03:04:00,1487534640000,-0.5,-0.4,-0.7
2017-02-20 03:04:00,1487534640000,-1.0,-0.4,-0.7
2017-02-20 03:04:00,1487534640000,-0.4,-0.3,-0.8
2017-02-20 03:04:00,1487534640000,-0.3,-0.4,-0.9
2017-02-20 03:04:00,1487534640000,-0.4,-0.3,-0.8
2017-02-20 03:04:00,1487534640000,-0.5,-0.4,-0.8
2017-02-20 03:04:00,1487534640000,-0.5,-0.4,-0.8
2017-02-20 03:04:00,1487534640000,-0.5,-0.4,-0.7
2017-02-20 03:04:00,1487534640000,-0.5,-0.4,-0.7
2017-02-20 03:04:00,1487534640000,-0.6,-0.4,-0.7
2017-02-20 03:04:00,1487534640000,-0.5,-0.3,-0.8
2017-02-20 03:04:00,1487534640000,-0.5,-0.3,-0.8
2017-02-20 03:04:00,1487534640000,-0.5,-0.4,-0.8
2017-02-20 03:04:00,1487534640000,-0.5,-0.4,-0.8
2017-02-20 03:04:00,1487534640000,-0.5,-0.3,-0.8
2017-02-20 03:04:00,1487534640000,-0.5,-0.4,-0.8
2017-02-20 03:04:00,1487534640000,+0.6,-0.9,-0.2
2017-02-20 03:04:00,1487534640000,-0.2,-0.1,-1.2
2017-02-20 03:04:00,1487534640000,-1.0,-0.5,+0.8
2017-02-20 03:04:00,1487534640000,-0.4,-0.3,-0.8
2017-02-20 03:05:00,1487534700000,-0.5,-0.3,-0.8
2017-02-20 03:05:00,1487534700000,-0.4,-0.3,-0.8
2017-02-20 03:05:00,1487534700000,-0.4,-0.3,-0.8
2017-02-20 03:05:00,1487534700000,-0.4,-0.3,-0.8
2017-02-20 03:05:00,1487534700000,-0.5,-0.3,-0.8
2017-02-20 03:05:00,1487534700000,-0.5,-0.3,-0.8
2017-02-20 03:05:00,1487534700000,-0.2,-0.2,-0.9
2017-02-20 03:05:00,1487534700000,-0.4,-0.9,-0.3
2017-02-20 03:05:00,1487534700000,+0.6,+0.0,-0.8
2017-02-20 03:05:00,1487534700000,-0.4,-0.6,-0.3
2017-02-20 03:05:00,1487534700000,-0.6,-0.8,-0.2
2017-02-20 03:05:00,1487534700000,-0.2,-0.9,-0.4
2017-02-20 03:05:00,1487534700000,+0.4,-0.9,-0.2
2017-02-20 03:05:00,1487534700000,+0.6,-0.2,-1.1
2017-02-20 03:05:00,1487534700000,+0.4,-0.2,-0.8
2017-02-20 03:05:00,1487534700000,+1.2,-0.2,-1.5
2017-02-20 03:05:00,1487534700000,+0.6,-0.0,-1.0
2017-02-20 03:05:00,1487534700000,+0.7,+0.1,-0.6
2017-02-20 03:05:00,1487534700000,+0.6,+0.1,-0.6
2017-02-20 03:05:00,1487534700000,+0.6,+0.1,-0.7
2017-02-20 03:05:00,1487534700000,+0.6,+0.1,-0.8
2017-02-20 03:05:00,1487534700000,+0.6,+0.1,-0.8
2017-02-20 03:05:00,1487534700000,+0.6,+0.1,-0.8
2017-02-20 03:05:00,1487534700000,-0.0,+0.1,-1.0
2017-02-20 03:05:00,1487534700000,+0.2,+0.1,-0.9
2017-02-20 03:05:00,1487534700000,+0.2,-0.0,-1.0
2017-02-20 03:05:00,1487534700000,-0.4,-0.5,-0.8
2017-02-20 03:05:00,1487534700000,-0.4,-0.6,-0.7
2017-02-20 03:05:00,1487534700000,-0.4,-0.7,-0.6
2017-02-20 03:05:00,1487534700000,-0.4,-0.7,-0.6
2017-02-20 03:05:00,1487534700000,-0.4,-0.7,-0.6
2017-02-20 03:05:00,1487534700000,-0.4,-0.6,-0.6
2017-02-20 03:05:00,1487534700000,+0.4,+0.1,-1.1
2017-02-20 03:05:00,1487534700000,+0.1,+0.1,-0.9
2017-02-20 03:05:00,1487534700000,-0.5,-0.2,-0.7
2017-02-20 03:05:00,1487534700000,-0.4,-0.1,-0.8
2017-02-20 03:05:00,1487534700000,-0.9,+0.4,-0.9
2017-02-20 03:05:00,1487534700000,+0.5,-0.9,-0.2
2017-02-20 03:05:00,1487534700000,+0.5,-0.9,-0.3
2017-02-20 03:05:00,1487534700000,-0.7,-0.0,-0.6
2017-02-20 03:05:00,1487534700000,-0.8,-0.2,-0.2
2017-02-20 03:05:00,1487534700000,-0.2,-0.3,-0.5
2017-02-20 03:06:00,1487534760000,-0.2,+0.3,-0.8
2017-02-20 03:06:00,1487534760000,-0.2,+0.2,-0.9
2017-02-20 03:06:00,1487534760000,-0.3,+0.2,-0.9
2017-02-20 03:06:00,1487534760000,-0.2,+0.3,-0.8
2017-02-20 03:06:00,1487534760000,-0.3,+0.2,-0.9
2017-02-20 03:06:00,1487534760000,-0.3,+0.2,-0.9
2017-02-20 03:06:00,1487534760000,-0.3,+0.2,-0.9
2017-02-20 03:06:00,1487534760000,-0.3,+0.2,-0.9
2017-02-20 03:06:00,1487534760000,-0.3,+0.1,-0.9
2017-02-20 03:06:00,1487534760000,-0.2,+0.2,-0.9
2017-02-20 03:06:00,1487534760000,-0.1,+0.2,-1.0
2017-02-20 03:06:00,1487534760000,-0.2,-0.0,-1.1
2017-02-20 03:06:00,1487534760000,-0.4,-0.2,-0.8
2017-02-20 03:06:00,1487534760000,-0.4,-0.5,-0.7
2017-02-20 03:06:00,1487534760000,-0.4,-0.5,-0.6
2017-02-20 03:06:00,1487534760000,-0.4,-0.6,-0.7
2017-02-20 03:06:00,1487534760000,-0.4,-0.5,-0.7
2017-02-20 03:06:00,1487534760000,-0.4,-0.6,-0.6
2017-02-20 03:06:00,1487534760000,-0.4,-0.6,-0.6
2017-02-20 03:06:00,1487534760000,-0.4,-0.6,-0.7
2017-02-20 03:06:00,1487534760000,-0.4,-0.6,-0.7
2017-02-20 03:06:00,1487534760000,-0.4,-0.6,-0.6
2017-02-20 03:06:00,1487534760000,-0.4,-0.6,-0.7
2017-02-20 03:06:00,1487534760000,-0.4,-0.6,-0.6
2017-02-20 03:06:00,1487534760000,-0.4,-0.6,-0.6
2017-02-20 03:06:00,1487534760000,-0.4,-0.6,-0.7
2017-02-20 03:06:00,1487534760000,-0.4,-0.6,-0.7
2017-02-20 03:06:00,1487534760000,-0.4,-0.6,-0.6
2017-02-20 03:06:00,1487534760000,-0.5,-0.6,-0.6
2017-02-20 03:06:00,1487534760000,-0.4,-0.6,-0.6
2017-02-20 03:06:00,1487534760000,-0.4,-0.6,-0.6
2017-02-20 03:06:00,1487534760000,-0.4,-0.6,-0.6
2017-02-20 03:06:00,1487534760000,-0.4,-0.6,-0.6
2017-02-20 03:06:00,1487534760000,-0.4,-0.6,-0.6
2017-02-20 03:06:00,1487534760000,-0.8,-0.4,-0.3
2017-02-20 03:06:00,1487534760000,-0.4,-0.3,-0.8
2017-02-20 03:06:00,1487534760000,-0.4,-0.3,-0.8
2017-02-20 03:06:00,1487534760000,-0.4,-0.3,-0.8
2017-02-20 03:06:00,1487534760000,-0.4,-0.3,-0.8
2017-02-20 03:06:00,1487534760000,-0.4,-0.3,-0.8
2017-02-20 03:06:00,1487534760000,-0.4,-0.3,-0.8
2017-02-20 03:06:00,1487534760000,-0.5,-0.3,-0.8
2017-02-20 03:07:00,1487534820000,-0.4,-0.3,-0.8
2017-02-20 03:07:00,1487534820000,-0.5,-0.3,-0.8
2017-02-20 03:07:00,1487534820000,-0.4,-0.3,-0.8
2017-02-20 03:07:00,1487534820000,-0.4,-0.3,-0.8
2017-02-20 03:07:00,1487534820000,-0.4,-0.3,-0.8
2017-02-20 03:07:00,1487534820000,-0.5,-0.3,-0.8
2017-02-20 03:07:00,1487534820000,-0.5,-0.3,-0.8
2017-02-20 03:07:00,1487534820000,-0.5,-0.3,-0.8
2017-02-20 03:07:00,1487534820000,-0.5,-0.3,-0.8
2017-02-20 03:07:00,1487534820000,-0.5,-0.3,-0.8
2017-02-20 03:07:00,1487534820000,-0.5,-0.3,-0.7
2017-02-20 03:07:00,1487534820000,-0.5,-0.4,-0.8
2017-02-20 03:07:00,1487534820000,-0.5,-0.4,-0.8
2017-02-20 03:07:00,1487534820000,-0.5,-0.4,-0.8
2017-02-20 03:07:00,1487534820000,-0.5,-0.4,-0.8
2017-02-20 03:07:00,1487534820000,-0.5,-0.4,-0.8
2017-02-20 03:07:00,1487534820000,-0.5,-0.4,-0.8
2017-02-20 03:07:00,1487534820000,-0.5,-0.4,-0.8
2017-02-20 03:07:00,1487534820000,-0.5,-0.4,-0.8
2017-02-20 03:07:00,1487534820000,-0.5,-0.3,-0.8
2017-02-20 03:07:00,1487534820000,-0.5,-0.4,-0.8
2017-02-20 03:07:00,1487534820000,-0.5,-0.4,-0.8
2017-02-20 03:07:00,1487534820000,-0.4,-0.4,-0.8
2017-02-20 03:07:00,1487534820000,-0.4,-0.4,-0.8
2017-02-20 03:07:00,1487534820000,-0.5,-0.4,-0.8
2017-02-20 03:07:00,1487534820000,-0.5,-0.3,-0.7
2017-02-20 03:07:00,1487534820000,-0.5,-0.3,-0.8
2017-02-20 03:07:00,1487534820000,-0.4,-0.3,-0.8
2017-02-20 03:07:00,1487534820000,-0.5,-0.3,-0.8
2017-02-20 03:07:00,1487534820000,-0.5,-0.4,-0.8
2017-02-20 03:07:00,1487534820000,-0.5,-0.4,-0.8
2017-02-20 03:07:00,1487534820000,-0.5,-0.4,-0.8
2017-02-20 03:07:00,1487534820000,-0.5,-0.4,-0.8
2017-02-20 03:07:00,1487534820000,-0.5,-0.4,-0.8
2017-02-20 03:07:00,1487534820000,-0.5,-0.4,-0.7
2017-02-20 03:07:00,1487534820000,-0.5,-0.4,-0.8
2017-02-20 03:07:00,1487534820000,-0.6,-0.3,-0.6
2017-02-20 03:07:00,1487534820000,-0.3,-0.4,-0.8
2017-02-20 03:07:00,1487534820000,-0.4,-0.3,-0.8
2017-02-20 03:08:00,1487534880000,-0.4,-0.3,-0.8
2017-02-20 03:08:00,1487534880000,-0.4,-0.3,-0.8
2017-02-20 03:08:00,1487534880000,-0.5,-0.3,-0.8
2017-02-20 03:08:00,1487534880000,-0.5,-0.3,-0.8
2017-02-20 03:08:00,1487534880000,-0.4,-0.3,-0.8
2017-02-20 03:08:00,1487534880000,-0.4,-0.3,-0.8
2017-02-20 03:08:00,1487534880000,-0.4,-0.3,-0.8
2017-02-20 03:08:00,1487534880000,-0.4,-0.3,-0.8
2017-02-20 03:08:00,1487534880000,-0.4,-0.3,-0.8
2017-02-20 03:08:00,1487534880000,-0.4,-0.3,-0.8
2017-02-20 03:08:00,1487534880000,-0.5,-0.3,-0.8
2017-02-20 03:08:00,1487534880000,-0.4,-0.3,-0.8
2017-02-20 03:08:00,1487534880000,-0.4,-0.3,-0.8
2017-02-20 03:08:00,1487534880000,-0.5,-0.4,-0.7
2017-02-20 03:08:00,1487534880000,-0.5,-0.3,-0.8
2017-02-20 03:08:00,1487534880000,-0.5,-0.4,-0.8
2017-02-20 03:08:00,1487534880000,-0.5,-0.4,-0.8
2017-02-20 03:08:00,1487534880000,-0.5,-0.4,-0.7
2017-02-20 03:08:00,1487534880000,-0.5,-0.4,-0.7
2017-02-20 03:08:00,1487534880000,-0.5,-0.4,-0.7
2017-02-20 03:08:00,1487534880000,-0.5,-0.4,-0.8
2017-02-20 03:08:00,1487534880000,-0.4,-0.4,-0.8
2017-02-20 03:08:00,1487534880000,-0.5,-0.3,-0.7
2017-02-20 03:08:00,1487534880000,-0.5,-0.3,-0.7
2017-02-20 03:08:00,1487534880000,-0.5,-0.4,-0.7
2017-02-20 03:08:00,1487534880000,-0.5,-0.3,-0.8
2017-02-20 03:08:00,1487534880000,-0.5,-0.4,-0.7
2017-02-20 03:08:00,1487534880000,-0.5,-0.4,-0.7
2017-02-20 03:08:00,1487534880000,-0.5,-0.4,-0.7
2017-02-20 03:08:00,1487534880000,-0.5,-0.4,-0.7
2017-02-20 03:08:00,1487534880000,-0.5,-0.4,-0.7
2017-02-20 03:08:00,1487534880000,-0.5,-0.4,-0.7
2017-02-20 03:08:00,1487534880000,-0.5,-0.4,-0.7
2017-02-20 03:08:00,1487534880000,-0.5,-0.4,-0.7
2017-02-20 03:08:00,1487534880000,-0.5,-0.4,-0.7
2017-02-20 03:08:00,1487534880000,-0.5,-0.4,-0.8
2017-02-20 03:08:00,1487534880000,-0.5,-0.4,-0.8
2017-02-20 03:08:00,1487534880000,-0.5,-0.4,-0.7
2017-02-20 03:08:00,1487534880000,-0.4,-0.4,-0.8
2017-02-20 03:08:00,1487534880000,-0.5,-0.4,-0.7
2017-02-20 03:08:00,1487534880000,-0.5,-0.4,-0.7
2017-02-20 03:08:00,1487534880000,-0.2,-0.4,-0.8
2017-02-20 03:08:00,1487534880000,-0.5,-0.4,-0.7
2017-02-20 03:09:00,1487534940000,-0.5,-0.4,-0.7
2017-02-20 03:09:00,1487534940000,-0.5,-0.4,-0.7
2017-02-20 03:09:00,1487534940000,-0.6,-0.3,-0.7
2017-02-20 03:09:00,1487534940000,-0.5,-0.0,-0.8
2017-02-20 03:09:00,1487534940000,-0.4,+0.0,-0.9
2017-02-20 03:09:00,1487534940000,-0.4,-0.4,-0.8
2017-02-20 03:09:00,1487534940000,-0.4,-0.3,-0.8
2017-02-20 03:09:00,1487534940000,-0.3,-0.3,-0.8
2017-02-20 03:09:00,1487534940000,-0.2,-0.3,-0.9
2017-02-20 03:09:00,1487534940000,-0.2,-0.3,-0.8
2017-02-20 03:09:00,1487534940000,-0.3,-0.3,-0.8
2017-02-20 03:09:00,1487534940000,-0.4,-0.3,-0.8
2017-02-20 03:09:00,1487534940000,-0.4,-0.4,-0.7
2017-02-20 03:09:00,1487534940000,-0.4,-0.4,-0.7
2017-02-20 03:09:00,1487534940000,-0.4,-0.4,-0.7
2017-02-20 03:09:00,1487534940000,-0.4,-0.4,-0.8
2017-02-20 03:09:00,1487534940000,-0.5,-0.4,-0.7
2017-02-20 03:09:00,1487534940000,-0.4,-0.4,-0.7
2017-02-20 03:09:00,1487534940000,-0.4,-0.4,-0.7
2017-02-20 03:09:00,1487534940000,-0.4,-0.4,-0.7
2017-02-20 03:09:00,1487534940000,-0.4,-0.4,-0.8
2017-02-20 03:09:00,1487534940000,-0.5,-0.4,-0.7
2017-02-20 03:09:00,1487534940000,-0.5,-0.4,-0.7
2017-02-20 03:09:00,1487534940000,-0.5,-0.4,-0.7
2017-02-20 03:09:00,1487534940000,-0.5,-0.4,-0.7
2017-02-20 03:09:00,1487534940000,-0.5,-0.4,-0.7
2017-02-20 03:09:00,1487534940000,-0.5,-0.4,-0.7
2017-02-20 03:09:00,1487534940000,-0.5,-0.4,-0.7
2017-02-20 03:09:00,1487534940000,-0.5,-0.4,-0.7
2017-02-20 03:09:00,1487534940000,-0.4,-0.3,-0.8
2017-02-20 03:09:00,1487534940000,-0.4,-0.4,-0.8
2017-02-20 03:09:00,1487534940000,-0.5,-0.4,-0.8
2017-02-20 03:09:00,1487534940000,-0.5,-0.4,-0.7
2017-02-20 03:09:00,1487534940000,-0.4,-0.4,-0.8
2017-02-20 03:09:00,1487534940000,-0.5,-0.4,-0.8
2017-02-20 03:09:00,1487534940000,-0.5,-0.4,-0.8
2017-02-20 03:09:00,1487534940000,-0.5,-0.4,-0.7
2017-02-20 03:09:00,1487534940000,-0.5,-0.4,-0.7
2017-02-20 03:09:00,1487534940000,-0.5,-0.4,-0.7
2017-02-20 03:09:00,1487534940000,-0.5,-0.4,-0.7
2017-02-20 03:09:00,1487534940000,-0.5,-0.4,-0.7
2017-02-20 03:09:00,1487534940000,-0.5,-0.4,-0.7
2017-02-20 03:09:00,1487534940000,-0.5,-0.4,-0.7
2017-02-20 03:09:00,1487534940000,-0.5,-0.4,-0.7
2017-02-20 03:09:00,1487534940000,-0.5,-0.4,-0.7
2017-02-20 03:09:00,1487534940000,-0.5,-0.4,-0.7
2017-02-20 03:09:00,1487534940000,-0.5,-0.4,-0.7
2017-02-20 03:10:00,1487535000000,-0.5,-0.4,-0.7
2017-02-20 03:10:00,1487535000000,-0.5,-0.4,-0.7
2017-02-20 03:10:00,1487535000000,-0.5,-0.4,-0.7
2017-02-20 03:10:00,1487535000000,-0.5,-0.4,-0.7
2017-02-20 03:10:00,1487535000000,-0.5,-0.4,-0.7
2017-02-20 03:10:00,1487535000000,-0.5,-0.4,-0.7
2017-02-20 03:10:00,1487535000000,-0.5,-0.4,-0.7
2017-02-20 03:10:00,1487535000000,-0.5,-0.4,-0.7
2017-02-20 03:10:00,1487535000000,-0.5,-0.4,-0.7
2017-02-20 03:10:00,1487535000000,-0.4,-0.4,-0.7
2017-02-20 03:10:00,1487535000000,-0.5,-0.4,-0.7
2017-02-20 03:10:00,1487535000000,-0.5,-0.4,-0.7
2017-02-20 03:10:00,1487535000000,-0.5,-0.4,-0.7
2017-02-20 03:10:00,1487535000000,-0.5,-0.4,-0.7
2017-02-20 03:10:00,1487535000000,-0.5,-0.4,-0.7
2017-02-20 03:10:00,1487535000000,-0.5,-0.4,-0.7
2017-02-20 03:10:00,1487535000000,-0.5,-0.4,-0.7
2017-02-20 03:10:00,1487535000000,-0.5,-0.4,-0.7
2017-02-20 03:10:00,1487535000000,-0.5,-0.4,-0.7
2017-02-20 03:10:00,1487535000000,-0.5,-0.4,-0.7
2017-02-20 03:10:00,1487535000000,-0.5,-0.4,-0.7
2017-02-20 03:10:00,1487535000000,-0.5,-0.4,-0.7
2017-02-20 03:10:00,1487535000000,-0.5,-0.4,-0.7
2017-02-20 03:10:00,1487535000000,-0.6,-0.4,-0.6
2017-02-20 03:10:00,1487535000000,-0.5,-0.4,-0.7
2017-02-20 03:10:00,1487535000000,-0.4,-0.4,-0.8
2017-02-20 03:10:00,1487535000000,-0.5,-0.3,-0.8
2017-02-20 03:10:00,1487535000000,-0.5,-0.3,-0.8
2017-02-20 03:10:00,1487535000000,-0.5,-0.3,-0.8
2017-02-20 03:10:00,1487535000000,-0.5,-0.4,-0.7
2017-02-20 03:10:00,1487535000000,-0.4,-0.4,-0.8
2017-02-20 03:10:00,1487535000000,-0.5,-0.4,-0.7
2017-02-20 03:10:00,1487535000000,-0.5,-0.4,-0.7
2017-02-20 03:10:00,1487535000000,-0.5,-0.4,-0.7
2017-02-20 03:10:00,1487535000000,-0.5,-0.4,-0.7
2017-02-20 03:10:00,1487535000000,-0.5,-0.4,-0.7
2017-02-20 03:10:00,1487535000000,-0.5,-0.4,-0.7
2017-02-20 03:10:00,1487535000000,-0.5,-0.4,-0.7
2017-02-20 03:10:00,1487535000000,-0.5,-0.4,-0.7
2017-02-20 03:10:00,1487535000000,-0.5,-0.4,-0.7
2017-02-20 03:10:00,1487535000000,-0.6,-0.5,-0.8
2017-02-20 03:10:00,1487535000000,-0.5,-0.2,-0.8
2017-02-20 03:10:00,1487535000000,-0.5,-0.2,-0.8
2017-02-20 03:11:00,1487535060000,-0.5,-0.2,-0.8
2017-02-20 03:11:00,1487535060000,-0.5,-0.2,-0.8
2017-02-20 03:11:00,1487535060000,-0.5,-0.2,-0.8
2017-02-20 03:11:00,1487535060000,-0.5,-0.2,-0.8
2017-02-20 03:11:00,1487535060000,-0.5,-0.2,-0.8
2017-02-20 03:11:00,1487535060000,-0.5,-0.2,-0.8
2017-02-20 03:11:00,1487535060000,-0.5,-0.2,-0.8
2017-02-20 03:11:00,1487535060000,-0.5,-0.2,-0.8
2017-02-20 03:11:00,1487535060000,-0.5,-0.2,-0.8
2017-02-20 03:11:00,1487535060000,-0.5,-0.2,-0.8
2017-02-20 03:11:00,1487535060000,-0.5,-0.2,-0.8
2017-02-20 03:11:00,1487535060000,-0.5,-0.2,-0.8
2017-02-20 03:11:00,1487535060000,-0.5,-0.2,-0.8
2017-02-20 03:11:00,1487535060000,-0.5,-0.2,-0.8
2017-02-20 03:11:00,1487535060000,-0.5,-0.2,-0.8
2017-02-20 03:11:00,1487535060000,-0.5,-0.2,-0.8
2017-02-20 03:11:00,1487535060000,-0.5,-0.2,-0.8
2017-02-20 03:11:00,1487535060000,-0.5,-0.2,-0.8
2017-02-20 03:11:00,1487535060000,-0.5,-0.2,-0.8
2017-02-20 03:11:00,1487535060000,-0.5,-0.2,-0.8
2017-02-20 03:11:00,1487535060000,-0.5,-0.2,-0.8
2017-02-20 03:11:00,1487535060000,-0.5,-0.2,-0.8
2017-02-20 03:11:00,1487535060000,-0.5,-0.2,-0.8
2017-02-20 03:11:00,1487535060000,-0.4,-0.2,-0.8
2017-02-20 03:11:00,1487535060000,-0.5,-0.2,-0.8
2017-02-20 03:11:00,1487535060000,-0.5,-0.2,-0.8
2017-02-20 03:11:00,1487535060000,-0.5,-0.2,-0.8
2017-02-20 03:11:00,1487535060000,-0.5,-0.2,-0.8
2017-02-20 03:11:00,1487535060000,-0.5,-0.2,-0.8
2017-02-20 03:11:00,1487535060000,-0.5,-0.2,-0.8
2017-02-20 03:11:00,1487535060000,-0.5,-0.2,-0.8
2017-02-20 03:11:00,1487535060000,-0.4,-0.2,-0.8
2017-02-20 03:11:00,1487535060000,-0.4,-0.2,-0.8
2017-02-20 03:11:00,1487535060000,-0.5,-0.2,-0.8
2017-02-20 03:11:00,1487535060000,-0.5,-0.2,-0.8
2017-02-20 03:11:00,1487535060000,-0.5,-0.2,-0.8
2017-02-20 03:11:00,1487535060000,-0.5,-0.2,-0.8
2017-02-20 03:11:00,1487535060000,-0.5,-0.2,-0.8
2017-02-20 03:11:00,1487535060000,-0.5,-0.2,-0.8
2017-02-20 03:11:00,1487535060000,-0.5,-0.2,-0.8
2017-02-20 03:11:00,1487535060000,-0.5,-0.2,-0.8
2017-02-20 03:11:00,1487535060000,-0.5,-0.2,-0.8
2017-02-20 03:11:00,1487535060000,-0.5,-0.2,-0.8
2017-02-20 03:11:00,1487535060000,-0.4,-0.2,-0.8
2017-02-20 03:11:00,1487535060000,-0.5,-0.2,-0.8
2017-02-20 03:12:00,1487535120000,-0.5,-0.2,-0.8
2017-02-20 03:12:00,1487535120000,-0.5,-0.2,-0.8
2017-02-20 03:12:00,1487535120000,-0.5,-0.2,-0.8
2017-02-20 03:12:00,1487535120000,-0.5,-0.1,-0.8
2017-02-20 03:12:00,1487535120000,-0.4,-0.1,-0.9
2017-02-20 03:12:00,1487535120000,-0.4,-0.1,-0.9
2017-02-20 03:12:00,1487535120000,-0.4,-0.1,-0.8
2017-02-20 03:12:00,1487535120000,-0.3,-0.2,-0.9
2017-02-20 03:12:00,1487535120000,-0.2,-0.1,-0.9
2017-02-20 03:12:00,1487535120000,-0.3,-0.1,-0.9
2017-02-20 03:12:00,1487535120000,-0.5,-0.1,-0.8
2017-02-20 03:12:00,1487535120000,-0.3,-0.0,-1.0
2017-02-20 03:12:00,1487535120000,-0.5,-0.3,-0.8
2017-02-20 03:12:00,1487535120000,-0.5,-0.3,-0.8
2017-02-20 03:12:00,1487535120000,-0.5,-0.3,-0.8
2017-02-20 03:12:00,1487535120000,-0.5,-0.2,-0.8
2017-02-20 03:12:00,1487535120000,-0.5,-0.3,-0.8
2017-02-20 03:12:00,1487535120000,-0.5,-0.3,-0.8
2017-02-20 03:12:00,1487535120000,-0.5,-0.3,-0.8
2017-02-20 03:12:00,1487535120000,-0.5,-0.3,-0.8
2017-02-20 03:12:00,1487535120000,-0.5,-0.3,-0.8
2017-02-20 03:12:00,1487535120000,-0.5,-0.3,-0.8
2017-02-20 03:12:00,1487535120000,-0.5,-0.3,-0.8
2017-02-20 03:12:00,1487535120000,-0.5,-0.3,-0.8
2017-02-20 03:12:00,1487535120000,-0.5,-0.3,-0.8
2017-02-20 03:12:00,1487535120000,-0.5,-0.3,-0.8
2017-02-20 03:12:00,1487535120000,-0.5,-0.3,-0.8
2017-02-20 03:12:00,1487535120000,-0.5,-0.3,-0.8
2017-02-20 03:12:00,1487535120000,-0.4,-0.3,-0.8
2017-02-20 03:12:00,1487535120000,-0.5,-0.3,-0.8
2017-02-20 03:12:00,1487535120000,-0.5,-0.3,-0.8
2017-02-20 03:12:00,1487535120000,-0.5,-0.3,-0.8
2017-02-20 03:12:00,1487535120000,-0.5,-0.3,-0.8
2017-02-20 03:12:00,1487535120000,-0.5,-0.3,-0.8
2017-02-20 03:12:00,1487535120000,-0.4,-0.2,-0.8
2017-02-20 03:12:00,1487535120000,-0.4,-0.2,-0.8
2017-02-20 03:12:00,1487535120000,-0.5,-0.3,-0.8
2017-02-20 03:12:00,1487535120000,-0.5,-0.3,-0.8
2017-02-20 03:12:00,1487535120000,-0.5,-0.3,-0.8
2017-02-20 03:12:00,1487535120000,-0.5,-0.3,-0.8
2017-02-20 03:13:00,1487535180000,-0.5,-0.3,-0.8
2017-02-20 03:13:00,1487535180000,-0.5,-0.3,-0.8
2017-02-20 03:13:00,1487535180000,-0.5,-0.3,-0.8
2017-02-20 03:13:00,1487535180000,-0.4,-0.3,-0.8
2017-02-20 03:13:00,1487535180000,-0.5,-0.3,-0.8
2017-02-20 03:13:00,1487535180000,-0.5,-0.3,-0.8
2017-02-20 03:13:00,1487535180000,-0.5,-0.3,-0.8
2017-02-20 03:13:00,1487535180000,-0.5,-0.3,-0.8
2017-02-20 03:13:00,1487535180000,-0.5,-0.3,-0.8
2017-02-20 03:13:00,1487535180000,-0.5,-0.3,-0.8
2017-02-20 03:13:00,1487535180000,-0.5,-0.3,-0.8
2017-02-20 03:13:00,1487535180000,-0.5,-0.3,-0.8
2017-02-20 03:13:00,1487535180000,-0.5,-0.3,-0.8
2017-02-20 03:13:00,1487535180000,-0.5,-0.3,-0.8
2017-02-20 03:13:00,1487535180000,-0.5,-0.3,-0.8
2017-02-20 03:13:00,1487535180000,-0.5,-0.3,-0.8
2017-02-20 03:13:00,1487535180000,-0.5,-0.3,-0.8
2017-02-20 03:13:00,1487535180000,-0.5,-0.3,-0.8
2017-02-20 03:13:00,1487535180000,-0.5,-0.3,-0.8
2017-02-20 03:13:00,1487535180000,-0.5,-0.3,-0.8
2017-02-20 03:13:00,1487535180000,-0.5,-0.3,-0.8
2017-02-20 03:13:00,1487535180000,-0.5,-0.3,-0.8
2017-02-20 03:13:00,1487535180000,-0.5,-0.3,-0.8
2017-02-20 03:13:00,1487535180000,-0.5,-0.3,-0.8
2017-02-20 03:13:00,1487535180000,-0.6,-0.0,-0.8
2017-02-20 03:13:00,1487535180000,-0.4,-0.2,-0.8
2017-02-20 03:13:00,1487535180000,-0.5,-0.2,-0.8
2017-02-20 03:13:00,1487535180000,-0.4,-0.2,-0.8
2017-02-20 03:13:00,1487535180000,-0.5,-0.2,-0.8
2017-02-20 03:13:00,1487535180000,-0.5,-0.2,-0.8
2017-02-20 03:13:00,1487535180000,-0.5,-0.3,-0.8
2017-02-20 03:13:00,1487535180000,-0.4,-0.4,-0.8
2017-02-20 03:13:00,1487535180000,-0.5,-0.4,-0.7
2017-02-20 03:13:00,1487535180000,-0.5,-0.4,-0.7
2017-02-20 03:13:00,1487535180000,-0.5,-0.4,-0.7
2017-02-20 03:13:00,1487535180000,-0.5,-0.4,-0.7
2017-02-20 03:13:00,1487535180000,-0.5,-0.4,-0.7
2017-02-20 03:13:00,1487535180000,-0.4,-0.4,-0.8
2017-02-20 03:13:00,1487535180000,-0.5,-0.4,-0.7
2017-02-20 03:13:00,1487535180000,-0.5,-0.4,-0.7
2017-02-20 03:14:00,1487535240000,-0.5,-0.4,-0.7
2017-02-20 03:14:00,1487535240000,-0.5,-0.4,-0.7
2017-02-20 03:14:00,1487535240000,-0.5,-0.5,-0.7
2017-02-20 03:14:00,1487535240000,-0.5,-0.4,-0.7
2017-02-20 03:14:00,1487535240000,-0.4,-0.4,-0.7
2017-02-20 03:14:00,1487535240000,-0.5,-0.5,-0.7
2017-02-20 03:14:00,1487535240000,-0.5,-0.4,-0.7
2017-02-20 03:14:00,1487535240000,-0.5,-0.5,-0.7
2017-02-20 03:14:00,1487535240000,-0.5,-0.5,-0.7
2017-02-20 03:14:00,1487535240000,-0.5,-0.5,-0.7
2017-02-20 03:14:00,1487535240000,-0.5,-0.5,-0.7
2017-02-20 03:14:00,1487535240000,-0.5,-0.5,-0.7
2017-02-20 03:14:00,1487535240000,-0.5,-0.5,-0.7
2017-02-20 03:14:00,1487535240000,-0.5,-0.5,-0.7
2017-02-20 03:14:00,1487535240000,-0.5,-0.5,-0.7
2017-02-20 03:14:00,1487535240000,-0.5,-0.5,-0.7
2017-02-20 03:14:00,1487535240000,-0.5,-0.5,-0.7
2017-02-20 03:14:00,1487535240000,-0.5,-0.5,-0.7
2017-02-20 03:14:00,1487535240000,-0.5,-0.5,-0.7
2017-02-20 03:14:00,1487535240000,-0.5,-0.5,-0.7
2017-02-20 03:14:00,1487535240000,-0.5,-0.5,-0.7
2017-02-20 03:14:00,1487535240000,-0.5,-0.4,-0.7
2017-02-20 03:14:00,1487535240000,-0.5,-0.5,-0.7
2017-02-20 03:14:00,1487535240000,-0.5,-0.5,-0.7
2017-02-20 03:14:00,1487535240000,-0.5,-0.5,-0.7
2017-02-20 03:14:00,1487535240000,-0.5,-0.5,-0.7
2017-02-20 03:14:00,1487535240000,-0.5,-0.5,-0.7
2017-02-20 03:14:00,1487535240000,-0.5,-0.4,-0.7
2017-02-20 03:14:00,1487535240000,-0.5,-0.5,-0.6
2017-02-20 03:14:00,1487535240000,-0.8,-0.6,+0.3
2017-02-20 03:14:00,1487535240000,-0.3,-0.1,-0.8
2017-02-20 03:14:00,1487535240000,-0.4,-0.1,-0.8
2017-02-20 03:14:00,1487535240000,-0.4,-0.1,-0.8
2017-02-20 03:14:00,1487535240000,-0.4,-0.1,-0.8
2017-02-20 03:14:00,1487535240000,-0.4,-0.1,-0.8
2017-02-20 03:14:00,1487535240000,-0.4,-0.1,-0.8
2017-02-20 03:14:00,1487535240000,-0.4,-0.0,-0.9
2017-02-20 03:14:00,1487535240000,-0.3,-0.1,-0.9
2017-02-20 03:14:00,1487535240000,-0.4,-0.1,-0.8
2017-02-20 03:14:00,1487535240000,-0.4,-0.1,-0.8
2017-02-20 03:14:00,1487535240000,-0.4,-0.1,-0.8
2017-02-20 03:14:00,1487535240000,-0.4,-0.3,-0.8
2017-02-20 03:14:00,1487535240000,-0.4,-0.3,-0.8
2017-02-20 03:15:00,1487535300000,-0.4,-0.3,-0.8
2017-02-20 03:15:00,1487535300000,-0.4,-0.3,-0.8
2017-02-20 03:15:00,1487535300000,-0.4,-0.2,-0.8
2017-02-20 03:15:00,1487535300000,-0.4,-0.3,-0.8
2017-02-20 03:15:00,1487535300000,-0.4,-0.3,-0.8
2017-02-20 03:15:00,1487535300000,-0.4,-0.3,-0.8
2017-02-20 03:15:00,1487535300000,-0.4,-0.3,-0.8
2017-02-20 03:15:00,1487535300000,-0.4,-0.3,-0.8
2017-02-20 03:15:00,1487535300000,-0.4,-0.3,-0.8
2017-02-20 03:15:00,1487535300000,-0.4,-0.3,-0.8
2017-02-20 03:15:00,1487535300000,-0.4,-0.3,-0.8
2017-02-20 03:15:00,1487535300000,-0.4,-0.3,-0.8
2017-02-20 03:15:00,1487535300000,-0.4,-0.3,-0.8
2017-02-20 03:15:00,1487535300000,-0.4,-0.3,-0.8
2017-02-20 03:15:00,1487535300000,-0.4,-0.3,-0.8
2017-02-20 03:15:00,1487535300000,-0.4,-0.3,-0.8
2017-02-20 03:15:00,1487535300000,-0.4,-0.3,-0.8
2017-02-20 03:15:00,1487535300000,-0.4,-0.3,-0.8
2017-02-20 03:15:00,1487535300000,-0.4,-0.3,-0.8
2017-02-20 03:15:00,1487535300000,-0.4,-0.3,-0.8
2017-02-20 03:15:00,1487535300000,-0.4,-0.3,-0.8
2017-02-20 03:15:00,1487535300000,-0.4,-0.3,-0.8
2017-02-20 03:15:00,1487535300000,-0.4,-0.3,-0.8
2017-02-20 03:15:00,1487535300000,-0.4,-0.3,-0.8
2017-02-20 03:15:00,1487535300000,-0.4,-0.3,-0.8
2017-02-20 03:15:00,1487535300000,-0.4,-0.3,-0.8
2017-02-20 03:15:00,1487535300000,-0.4,-0.3,-0.8
2017-02-20 03:15:00,1487535300000,-0.4,-0.3,-0.8
2017-02-20 03:15:00,1487535300000,-0.4,-0.3,-0.8
2017-02-20 03:15:00,1487535300000,-0.4,-0.3,-0.8
2017-02-20 03:15:00,1487535300000,-0.4,-0.3,-0.8
2017-02-20 03:15:00,1487535300000,-0.4,-0.3,-0.8
2017-02-20 03:15:00,1487535300000,-0.4,-0.3,-0.8
2017-02-20 03:15:00,1487535300000,-0.4,-0.3,-0.8
2017-02-20 03:15:00,1487535300000,-0.4,-0.3,-0.8
2017-02-20 03:15:00,1487535300000,-0.5,-0.3,-0.8
2017-02-20 03:15:00,1487535300000,-0.4,-0.2,-0.8
2017-02-20 03:15:00,1487535300000,-0.4,-0.2,-0.8
2017-02-20 03:15:00,1487535300000,-0.3,-0.2,-0.9
2017-02-20 03:16:00,1487535360000,-0.4,-0.2,-0.9
2017-02-20 03:16:00,1487535360000,-0.4,-0.2,-0.8
2017-02-20 03:16:00,1487535360000,-0.4,-0.2,-0.9
2017-02-20 03:16:00,1487535360000,-0.4,-0.2,-0.9
2017-02-20 03:16:00,1487535360000,-0.3,-0.2,-0.9
2017-02-20 03:16:00,1487535360000,-0.4,-0.2,-0.9
2017-02-20 03:16:00,1487535360000,-0.4,-0.2,-0.9
2017-02-20 03:16:00,1487535360000,-0.4,-0.2,-0.9
2017-02-20 03:16:00,1487535360000,-0.3,-0.2,-0.9
2017-02-20 03:16:00,1487535360000,-0.4,-0.2,-0.8
2017-02-20 03:16:00,1487535360000,-0.1,-0.2,-1.0
2017-02-20 03:16:00,1487535360000,-0.3,-0.2,-0.9
2017-02-20 03:16:00,1487535360000,-0.4,-0.2,-0.8
2017-02-20 03:16:00,1487535360000,-0.3,-0.2,-0.9
2017-02-20 03:16:00,1487535360000,-0.4,-0.2,-0.8
2017-02-20 03:16:00,1487535360000,-0.3,-0.2,-0.9
2017-02-20 03:16:00,1487535360000,-0.3,-0.2,-0.9
2017-02-20 03:16:00,1487535360000,-0.3,-0.2,-0.9
2017-02-20 03:16:00,1487535360000,-0.3,-0.2,-0.9
2017-02-20 03:16:00,1487535360000,-0.3,-0.2,-0.9
2017-02-20 03:16:00,1487535360000,-0.3,-0.2,-0.9
2017-02-20 03:16:00,1487535360000,-0.3,-0.2,-0.9
2017-02-20 03:16:00,1487535360000,-0.3,-0.2,-0.9
2017-02-20 03:16:00,1487535360000,-0.3,-0.2,-0.9
2017-02-20 03:16:00,1487535360000,-0.3,-0.2,-0.9
2017-02-20 03:16:00,1487535360000,-0.4,-0.2,-0.9
2017-02-20 03:16:00,1487535360000,-0.3,-0.2,-0.9
2017-02-20 03:16:00,1487535360000,-0.3,-0.1,-0.9
2017-02-20 03:16:00,1487535360000,-0.3,-0.2,-0.9
2017-02-20 03:16:00,1487535360000,-0.3,-0.2,-0.9
2017-02-20 03:16:00,1487535360000,-0.3,-0.2,-0.9
2017-02-20 03:16:00,1487535360000,-0.3,-0.2,-0.9
2017-02-20 03:16:00,1487535360000,-0.3,-0.1,-0.9
2017-02-20 03:16:00,1487535360000,-0.3,-0.2,-0.9
2017-02-20 03:16:00,1487535360000,-0.4,-0.2,-0.9
2017-02-20 03:16:00,1487535360000,-0.3,-0.2,-0.9
2017-02-20 03:16:00,1487535360000,-0.3,-0.1,-0.9
2017-02-20 03:16:00,1487535360000,-0.3,-0.2,-0.9
2017-02-20 03:16:00,1487535360000,-0.3,-0.2,-0.9
2017-02-20 03:16:00,1487535360000,-0.3,-0.2,-0.9
2017-02-20 03:16:00,1487535360000,-0.3,-0.2,-0.9
2017-02-20 03:17:00,1487535420000,-0.3,-0.2,-0.9
2017-02-20 03:17:00,1487535420000,-0.3,-0.2,-0.9
2017-02-20 03:17:00,1487535420000,-0.3,-0.2,-0.9
2017-02-20 03:17:00,1487535420000,-0.3,-0.2,-0.9
2017-02-20 03:17:00,1487535420000,-0.3,-0.2,-0.9
2017-02-20 03:17:00,1487535420000,-0.3,-0.2,-0.9
2017-02-20 03:17:00,1487535420000,-0.3,-0.1,-0.9
2017-02-20 03:17:00,1487535420000,-0.4,-0.2,-0.8
2017-02-20 03:17:00,1487535420000,-0.3,-0.2,-0.9
2017-02-20 03:17:00,1487535420000,-0.3,-0.2,-0.9
2017-02-20 03:17:00,1487535420000,-0.3,-0.2,-0.9
2017-02-20 03:17:00,1487535420000,-0.3,-0.2,-0.9
2017-02-20 03:17:00,1487535420000,-0.3,-0.2,-0.9
2017-02-20 03:17:00,1487535420000,-0.3,-0.2,-0.9
2017-02-20 03:17:00,1487535420000,-0.3,-0.2,-0.9
2017-02-20 03:17:00,1487535420000,-0.3,-0.2,-0.9
2017-02-20 03:17:00,1487535420000,-0.3,-0.2,-0.9
2017-02-20 03:17:00,1487535420000,-0.3,-0.2,-0.9
2017-02-20 03:17:00,1487535420000,-0.3,-0.2,-0.9
2017-02-20 03:17:00,1487535420000,-0.3,-0.2,-0.9
2017-02-20 03:17:00,1487535420000,-0.3,-0.2,-0.9
2017-02-20 03:17:00,1487535420000,-0.3,-0.2,-0.9
2017-02-20 03:17:00,1487535420000,-0.3,-0.2,-0.9
2017-02-20 03:17:00,1487535420000,-0.3,-0.2,-0.9
2017-02-20 03:17:00,1487535420000,-0.4,-0.2,-0.8
2017-02-20 03:17:00,1487535420000,-0.3,-0.2,-0.9
2017-02-20 03:17:00,1487535420000,-0.3,-0.2,-0.9
2017-02-20 03:17:00,1487535420000,-0.3,-0.2,-0.9
2017-02-20 03:17:00,1487535420000,-0.3,-0.2,-0.9
2017-02-20 03:17:00,1487535420000,-0.3,-0.2,-0.9
2017-02-20 03:17:00,1487535420000,-0.3,-0.2,-0.9
2017-02-20 03:17:00,1487535420000,-0.3,-0.2,-0.9
2017-02-20 03:17:00,1487535420000,-0.3,-0.2,-0.9
2017-02-20 03:17:00,1487535420000,-0.3,-0.2,-0.9
2017-02-20 03:17:00,1487535420000,-0.3,-0.1,-0.9
2017-02-20 03:17:00,1487535420000,-0.8,-0.8,+0.0
2017-02-20 03:17:00,1487535420000,-1.0,-0.4,+0.4
2017-02-20 03:17:00,1487535420000,-0.6,-0.4,+0.7
2017-02-20 03:17:00,1487535420000,-1.1,-0.0,+0.5
2017-02-20 03:17:00,1487535420000,-0.7,-0.4,+0.7
2017-02-20 03:17:00,1487535420000,-0.7,+0.2,+0.8
2017-02-20 03:17:00,1487535420000,-0.1,+0.2,-1.0
2017-02-20 03:18:00,1487535480000,-0.4,-0.1,-0.9
2017-02-20 03:18:00,1487535480000,-0.4,-0.2,-0.8
2017-02-20 03:18:00,1487535480000,-0.4,-0.3,-0.8
2017-02-20 03:18:00,1487535480000,-0.5,-0.3,-0.8
2017-02-20 03:18:00,1487535480000,-0.5,-0.3,-0.8
2017-02-20 03:18:00,1487535480000,-0.5,-0.3,-0.8
2017-02-20 03:18:00,1487535480000,-0.4,-0.3,-0.8
2017-02-20 03:18:00,1487535480000,-0.4,-0.3,-0.8
2017-02-20 03:18:00,1487535480000,-0.4,-0.3,-0.8
2017-02-20 03:18:00,1487535480000,-0.4,-0.3,-0.8
2017-02-20 03:18:00,1487535480000,-0.5,-0.3,-0.8
2017-02-20 03:18:00,1487535480000,-0.5,-0.3,-0.8
2017-02-20 03:18:00,1487535480000,-0.5,-0.3,-0.8
2017-02-20 03:18:00,1487535480000,-0.5,-0.3,-0.8
2017-02-20 03:18:00,1487535480000,-0.5,-0.3,-0.8
2017-02-20 03:18:00,1487535480000,-0.5,-0.3,-0.8
2017-02-20 03:18:00,1487535480000,-0.5,-0.3,-0.8
2017-02-20 03:18:00,1487535480000,-0.5,-0.3,-0.8
2017-02-20 03:18:00,1487535480000,-0.5,-0.3,-0.8
2017-02-20 03:18:00,1487535480000,-0.5,-0.3,-0.8
2017-02-20 03:18:00,1487535480000,-0.5,-0.3,-0.8
2017-02-20 03:18:00,1487535480000,-0.5,-0.3,-0.8
2017-02-20 03:18:00,1487535480000,-0.5,-0.3,-0.8
2017-02-20 03:18:00,1487535480000,-0.5,-0.3,-0.8
2017-02-20 03:18:00,1487535480000,-0.5,-0.3,-0.7
2017-02-20 03:18:00,1487535480000,-0.5,-0.3,-0.8
2017-02-20 03:18:00,1487535480000,-0.5,-0.3,-0.8
2017-02-20 03:18:00,1487535480000,-0.5,-0.3,-0.8
2017-02-20 03:18:00,1487535480000,-0.5,-0.3,-0.8
2017-02-20 03:18:00,1487535480000,-0.5,-0.3,-0.8
2017-02-20 03:18:00,1487535480000,-0.5,-0.3,-0.8
2017-02-20 03:18:00,1487535480000,-0.5,-0.3,-0.8
2017-02-20 03:18:00,1487535480000,-0.5,-0.3,-0.8
2017-02-20 03:18:00,1487535480000,-0.5,-0.3,-0.8
2017-02-20 03:18:00,1487535480000,-0.5,-0.3,-0.8
2017-02-20 03:18:00,1487535480000,-0.5,-0.3,-0.8
2017-02-20 03:18:00,1487535480000,-0.5,-0.3,-0.8
2017-02-20 03:18:00,1487535480000,-0.5,-0.3,-0.8
2017-02-20 03:18:00,1487535480000,-0.5,-0.3,-0.8
2017-02-20 03:18:00,1487535480000,-0.5,-0.3,-0.8
2017-02-20 03:18:00,1487535480000,-0.5,-0.3,-0.8
2017-02-20 03:18:00,1487535480000,-0.5,-0.3,-0.8
2017-02-20 03:18:00,1487535480000,-0.5,-0.3,-0.8
2017-02-20 03:18:00,1487535480000,-0.5,-0.3,-0.8
2017-02-20 03:18:00,1487535480000,-0.5,-0.3,-0.8
2017-02-20 03:19:00,1487535540000,-0.5,-0.3,-0.8
2017-02-20 03:19:00,1487535540000,-0.5,-0.3,-0.8
2017-02-20 03:19:00,1487535540000,-0.6,-0.3,-0.7
2017-02-20 03:19:00,1487535540000,-0.5,-0.3,-0.8
2017-02-20 03:19:00,1487535540000,-0.5,-0.3,-0.8
2017-02-20 03:19:00,1487535540000,-0.5,-0.3,-0.8
2017-02-20 03:19:00,1487535540000,-0.5,-0.3,-0.8
2017-02-20 03:19:00,1487535540000,-0.5,-0.3,-0.8
2017-02-20 03:19:00,1487535540000,-0.5,-0.3,-0.8
2017-02-20 03:19:00,1487535540000,-0.5,-0.3,-0.8
2017-02-20 03:19:00,1487535540000,-0.5,-0.3,-0.8
2017-02-20 03:19:00,1487535540000,-0.5,-0.3,-0.7
2017-02-20 03:19:00,1487535540000,-0.6,-0.3,-0.7
2017-02-20 03:19:00,1487535540000,-0.3,-0.4,-0.8
2017-02-20 03:19:00,1487535540000,-0.6,-0.3,-0.8
2017-02-20 03:19:00,1487535540000,-0.5,-0.0,-1.0
2017-02-20 03:19:00,1487535540000,-0.1,-0.2,-0.8
2017-02-20 03:19:00,1487535540000,-0.4,-0.6,-0.8
2017-02-20 03:19:00,1487535540000,-0.4,-0.3,-0.8
2017-02-20 03:19:00,1487535540000,-0.5,-0.3,-0.8
2017-02-20 03:19:00,1487535540000,-0.5,-0.4,-0.7
2017-02-20 03:19:00,1487535540000,-0.5,-0.4,-0.8
2017-02-20 03:19:00,1487535540000,-0.5,-0.4,-0.7
2017-02-20 03:19:00,1487535540000,-0.5,-0.4,-0.7
2017-02-20 03:19:00,1487535540000,-0.5,-0.4,-0.7
2017-02-20 03:19:00,1487535540000,-0.5,-0.4,-0.7
2017-02-20 03:19:00,1487535540000,-0.5,-0.4,-0.7
2017-02-20 03:19:00,1487535540000,-0.5,-0.4,-0.7
2017-02-20 03:19:00,1487535540000,-0.5,-0.4,-0.7
2017-02-20 03:19:00,1487535540000,-0.4,-0.5,-0.7
2017-02-20 03:19:00,1487535540000,-0.5,-0.4,-0.7
2017-02-20 03:19:00,1487535540000,-0.4,-0.4,-0.7
2017-02-20 03:19:00,1487535540000,-0.5,-0.4,-0.7
2017-02-20 03:19:00,1487535540000,-0.5,-0.4,-0.7
2017-02-20 03:19:00,1487535540000,-0.5,-0.3,-0.7
2017-02-20 03:19:00,1487535540000,-0.5,-0.4,-0.7
2017-02-20 03:19:00,1487535540000,-0.5,-0.4,-0.7
2017-02-20 03:19:00,1487535540000,-0.5,-0.4,-0.7
2017-02-20 03:19:00,1487535540000,-0.5,-0.4,-0.7
2017-02-20 03:19:00,1487535540000,-0.5,-0.4,-0.7
2017-02-20 03:19:00,1487535540000,-0.5,-0.4,-0.7
2017-02-20 03:19:00,1487535540000,-0.5,-0.4,-0.7
2017-02-20 03:19:00,1487535540000,-0.5,-0.4,-0.7
2017-02-20 03:19:00,1487535540000,-0.0,-1.0,-0.1
2017-02-20 03:19:00,1487535540000,-0.6,-0.3,-0.7
2017-02-20 03:20:00,1487535600000,-0.4,-0.4,-0.8
2017-02-20 03:20:00,1487535600000,-0.4,-0.4,-0.8
2017-02-20 03:20:00,1487535600000,-0.5,-0.4,-0.8
2017-02-20 03:20:00,1487535600000,-0.5,-0.4,-0.8
2017-02-20 03:20:00,1487535600000,-0.6,-0.2,-0.4
2017-02-20 03:20:00,1487535600000,-0.5,+0.3,-0.8
2017-02-20 03:20:00,1487535600000,-0.5,-0.4,-0.7
2017-02-20 03:20:00,1487535600000,-0.8,-0.2,-0.6
2017-02-20 03:20:00,1487535600000,-0.3,-0.4,-0.9
2017-02-20 03:20:00,1487535600000,-0.4,-0.3,-0.8
2017-02-20 03:20:00,1487535600000,-1.8,-0.4,-1.0
2017-02-20 03:20:00,1487535600000,-0.5,-0.4,-0.8
2017-02-20 03:20:00,1487535600000,-0.4,-0.4,-0.8
2017-02-20 03:20:00,1487535600000,-0.5,-0.3,-0.8
2017-02-20 03:20:00,1487535600000,-0.5,-0.4,-0.7
2017-02-20 03:20:00,1487535600000,-0.5,-0.4,-0.8
2017-02-20 03:20:00,1487535600000,-0.5,-0.4,-0.7
2017-02-20 03:20:00,1487535600000,-0.5,-0.4,-0.7
2017-02-20 03:20:00,1487535600000,-0.5,-0.4,-0.7
2017-02-20 03:20:00,1487535600000,-0.5,-0.4,-0.7
2017-02-20 03:20:00,1487535600000,-0.5,-0.4,-0.7
2017-02-20 03:20:00,1487535600000,-0.5,-0.4,-0.8
2017-02-20 03:20:00,1487535600000,-0.5,-0.4,-0.7
2017-02-20 03:20:00,1487535600000,-0.5,-0.4,-0.7
2017-02-20 03:20:00,1487535600000,-0.5,-0.4,-0.7
2017-02-20 03:20:00,1487535600000,-0.5,-0.4,-0.7
2017-02-20 03:20:00,1487535600000,-0.5,-0.3,-0.7
2017-02-20 03:20:00,1487535600000,-0.4,+0.2,-0.7
2017-02-20 03:20:00,1487535600000,-0.4,-0.3,-0.8
2017-02-20 03:20:00,1487535600000,-0.4,-0.3,-0.8
2017-02-20 03:20:00,1487535600000,-0.5,+0.1,-1.0
2017-02-20 03:20:00,1487535600000,-0.5,-0.7,-0.7
2017-02-20 03:20:00,1487535600000,-0.3,-0.3,-0.8
2017-02-20 03:20:00,1487535600000,-0.5,-0.3,-0.8
2017-02-20 03:20:00,1487535600000,-0.4,-0.3,-0.8
2017-02-20 03:20:00,1487535600000,-0.4,-0.3,-0.8
2017-02-20 03:20:00,1487535600000,-0.4,-0.3,-0.8
2017-02-20 03:20:00,1487535600000,-0.5,-0.3,-0.8
2017-02-20 03:20:00,1487535600000,-0.5,-0.3,-0.8
2017-02-20 03:20:00,1487535600000,-0.5,-0.3,-0.8
2017-02-20 03:20:00,1487535600000,-0.5,-0.3,-0.8
2017-02-20 03:20:00,1487535600000,-0.5,-0.3,-0.8
2017-02-20 03:20:00,1487535600000,-0.5,-0.3,-0.8
2017-02-20 03:20:00,1487535600000,-0.5,-0.3,-0.8
2017-02-20 03:21:00,1487535660000,-0.5,-0.3,-0.8
2017-02-20 03:21:00,1487535660000,-0.5,-0.3,-0.8
2017-02-20 03:21:00,1487535660000,-0.5,-0.3,-0.8
2017-02-20 03:21:00,1487535660000,-0.5,-0.3,-0.8
2017-02-20 03:21:00,1487535660000,-0.5,-0.3,-0.8
2017-02-20 03:21:00,1487535660000,-0.5,-0.3,-0.8
2017-02-20 03:21:00,1487535660000,-0.5,-0.3,-0.8
2017-02-20 03:21:00,1487535660000,-0.5,-0.3,-0.8
2017-02-20 03:21:00,1487535660000,-0.5,-0.4,-0.7
2017-02-20 03:21:00,1487535660000,-0.5,-0.4,-0.8
2017-02-20 03:21:00,1487535660000,-0.4,-0.4,-0.8
2017-02-20 03:21:00,1487535660000,-0.2,-0.4,-0.7
2017-02-20 03:21:00,1487535660000,-0.4,-0.5,-0.7
2017-02-20 03:21:00,1487535660000,-0.4,-0.4,-0.6
2017-02-20 03:21:00,1487535660000,-0.5,+0.3,-0.7
2017-02-20 03:21:00,1487535660000,-0.5,+0.2,-0.8
2017-02-20 03:21:00,1487535660000,-0.5,-0.4,-0.7
2017-02-20 03:21:00,1487535660000,-0.5,-0.3,-0.8
2017-02-20 03:21:00,1487535660000,-0.5,-0.3,-0.7
2017-02-20 03:21:00,1487535660000,-0.5,-0.3,-0.8
2017-02-20 03:21:00,1487535660000,-0.5,-0.3,-0.8
2017-02-20 03:21:00,1487535660000,-0.5,-0.3,-0.8
2017-02-20 03:21:00,1487535660000,-0.9,-0.4,-0.3
2017-02-20 03:21:00,1487535660000,-0.5,-0.3,-0.7
2017-02-20 03:21:00,1487535660000,-0.6,-0.1,-0.7
2017-02-20 03:21:00,1487535660000,-0.6,-0.1,-0.8
2017-02-20 03:21:00,1487535660000,-0.4,-0.3,-0.8
2017-02-20 03:21:00,1487535660000,-0.5,-0.3,-0.8
2017-02-20 03:21:00,1487535660000,-0.5,-0.3,-0.8
2017-02-20 03:21:00,1487535660000,-0.4,-0.3,-0.8
2017-02-20 03:21:00,1487535660000,-0.4,-0.3,-0.8
2017-02-20 03:21:00,1487535660000,-0.4,-0.3,-0.8
2017-02-20 03:21:00,1487535660000,-0.4,-0.4,-0.8
2017-02-20 03:21:00,1487535660000,-0.4,-0.4,-0.8
2017-02-20 03:21:00,1487535660000,-0.4,-0.3,-0.8
2017-02-20 03:21:00,1487535660000,-0.5,-0.4,-0.8
2017-02-20 03:21:00,1487535660000,-0.7,+0.1,-0.6
2017-02-20 03:21:00,1487535660000,-0.4,+0.1,-0.8
2017-02-20 03:21:00,1487535660000,-0.5,+0.2,-0.8
2017-02-20 03:21:00,1487535660000,-0.3,+0.0,-0.8
2017-02-20 03:21:00,1487535660000,-0.4,-0.4,-0.7
2017-02-20 03:21:00,1487535660000,-0.5,-0.3,-0.8
2017-02-20 03:22:00,1487535720000,-0.4,-0.3,-0.8
2017-02-20 03:22:00,1487535720000,-0.5,-0.3,-0.8
2017-02-20 03:22:00,1487535720000,-0.3,-0.8,-0.4
2017-02-20 03:22:00,1487535720000,-0.4,-0.9,-0.3
2017-02-20 03:22:00,1487535720000,-0.4,-0.8,-0.3
2017-02-20 03:22:00,1487535720000,-0.6,-0.7,-0.4
2017-02-20 03:22:00,1487535720000,-0.6,-0.8,-0.3
2017-02-20 03:22:00,1487535720000,-0.5,-0.8,-0.3
2017-02-20 03:22:00,1487535720000,-0.5,-0.8,-0.3
2017-02-20 03:22:00,1487535720000,-0.5,-0.8,-0.3
2017-02-20 03:22:00,1487535720000,-0.6,-0.8,-0.2
2017-02-20 03:22:00,1487535720000,-0.5,-0.8,-0.3
2017-02-20 03:22:00,1487535720000,-0.5,-0.8,-0.3
2017-02-20 03:22:00,1487535720000,-0.4,-0.9,-0.3
2017-02-20 03:22:00,1487535720000,-0.8,-0.2,-0.3
2017-02-20 03:22:00,1487535720000,+0.0,+0.1,-1.0
2017-02-20 03:22:00,1487535720000,-0.3,+0.0,-0.9
2017-02-20 03:22:00,1487535720000,-0.7,-0.1,+0.8
2017-02-20 03:22:00,1487535720000,-0.3,-1.0,+0.3
2017-02-20 03:22:00,1487535720000,-0.4,-0.9,-0.0
2017-02-20 03:22:00,1487535720000,-0.3,-1.0,-0.1
2017-02-20 03:22:00,1487535720000,-0.1,-0.9,+0.4
2017-02-20 03:22:00,1487535720000,-0.2,-1.0,+0.2
2017-02-20 03:22:00,1487535720000,+0.0,-1.0,+0.1
2017-02-20 03:22:00,1487535720000,+0.0,-1.0,+0.3
2017-02-20 03:22:00,1487535720000,-0.1,-0.9,+0.3
2017-02-20 03:22:00,1487535720000,-0.1,-1.0,+0.3
2017-02-20 03:22:00,1487535720000,-0.4,-1.2,+0.5
2017-02-20 03:22:00,1487535720000,-0.4,-0.6,-0.8
2017-02-20 03:22:00,1487535720000,+0.3,-0.4,-1.4
2017-02-20 03:22:00,1487535720000,-0.4,-0.3,-0.8
2017-02-20 03:22:00,1487535720000,-0.4,-0.3,-0.8
2017-02-20 03:22:00,1487535720000,-0.5,-0.3,-0.8
2017-02-20 03:22:00,1487535720000,-0.7,-0.4,+0.7
2017-02-20 03:22:00,1487535720000,+0.4,-0.2,-0.8
2017-02-20 03:22:00,1487535720000,+0.6,+0.0,-0.7
2017-02-20 03:22:00,1487535720000,+0.7,+0.0,-0.6
2017-02-20 03:22:00,1487535720000,+0.5,+0.1,-0.7
2017-02-20 03:22:00,1487535720000,+0.6,+0.1,-0.7
2017-02-20 03:22:00,1487535720000,-0.4,-0.4,-0.8
2017-02-20 03:22:00,1487535720000,-0.4,-0.3,-0.8
2017-02-20 03:22:00,1487535720000,-0.5,-0.4,-0.8
2017-02-20 03:22:00,1487535720000,-0.4,-0.4,-0.8
2017-02-20 03:22:00,1487535720000,-0.5,-0.4,-0.7
2017-02-20 03:22:00,1487535720000,-0.5,-0.4,-0.7
2017-02-20 03:22:00,1487535720000,-0.5,-0.4,-0.7
2017-02-20 03:22:00,1487535720000,-0.4,-0.4,-0.9
2017-02-20 03:22:00,1487535720000,-0.4,-0.3,-0.7
2017-02-20 03:23:00,1487535780000,-0.4,-0.4,-0.8
2017-02-20 03:23:00,1487535780000,-0.5,-0.4,-0.7
2017-02-20 03:23:00,1487535780000,-0.5,-0.4,-0.7
2017-02-20 03:23:00,1487535780000,-0.5,-0.4,-0.7
2017-02-20 03:23:00,1487535780000,-0.5,-0.4,-0.7
2017-02-20 03:23:00,1487535780000,-0.5,-0.4,-0.7
2017-02-20 03:23:00,1487535780000,-0.8,-0.4,-0.0
2017-02-20 03:23:00,1487535780000,-0.5,-0.5,-0.6
2017-02-20 03:23:00,1487535780000,-0.6,-0.4,-0.6
2017-02-20 03:23:00,1487535780000,-0.6,-0.4,-0.6
2017-02-20 03:23:00,1487535780000,-0.6,-0.5,-0.6
2017-02-20 03:23:00,1487535780000,-0.6,-0.5,-0.6
2017-02-20 03:23:00,1487535780000,-0.6,-0.5,-0.6
2017-02-20 03:23:00,1487535780000,+0.3,-0.7,-0.2
2017-02-20 03:23:00,1487535780000,-0.5,-0.3,-0.8
2017-02-20 03:23:00,1487535780000,-0.6,-0.1,-0.7
2017-02-20 03:23:00,1487535780000,-0.7,-0.1,-0.7
2017-02-20 03:23:00,1487535780000,-0.6,-0.2,-0.7
2017-02-20 03:23:00,1487535780000,-0.6,-0.4,-0.6
2017-02-20 03:23:00,1487535780000,-0.6,-0.4,-0.7
2017-02-20 03:23:00,1487535780000,-0.5,-0.4,-0.7
2017-02-20 03:23:00,1487535780000,-0.6,-0.4,-0.6
2017-02-20 03:23:00,1487535780000,-0.6,-0.4,-0.7
2017-02-20 03:23:00,1487535780000,-0.6,-0.4,-0.6
2017-02-20 03:23:00,1487535780000,-0.6,-0.4,-0.6
2017-02-20 03:23:00,1487535780000,-0.6,-0.4,-0.6
2017-02-20 03:23:00,1487535780000,-0.6,-0.4,-0.6
2017-02-20 03:23:00,1487535780000,-0.6,-0.4,-0.6
2017-02-20 03:23:00,1487535780000,-0.6,-0.4,-0.6
2017-02-20 03:23:00,1487535780000,-0.6,-0.4,-0.6
2017-02-20 03:23:00,1487535780000,-0.6,-0.4,-0.6
2017-02-20 03:23:00,1487535780000,-0.6,-0.4,-0.6
2017-02-20 03:23:00,1487535780000,-0.6,-0.4,-0.6
2017-02-20 03:23:00,1487535780000,-0.6,-0.4,-0.6
2017-02-20 03:23:00,1487535780000,-0.6,-0.4,-0.6
2017-02-20 03:23:00,1487535780000,-0.6,-0.4,-0.6
2017-02-20 03:23:00,1487535780000,-0.6,-0.4,-0.6
2017-02-20 03:23:00,1487535780000,-0.4,+0.3,-1.0
2017-02-20 03:23:00,1487535780000,-0.5,+0.2,-0.6
2017-02-20 03:23:00,1487535780000,-0.1,+0.6,-0.7
2017-02-20 03:23:00,1487535780000,+0.0,+0.7,-0.6
2017-02-20 03:23:00,1487535780000,-0.3,+0.0,-1.1
2017-02-20 03:23:00,1487535780000,+0.8,+0.1,-0.8
2017-02-20 03:23:00,1487535780000,-0.2,-0.9,+0.5
2017-02-20 03:23:00,1487535780000,-0.0,-1.0,+0.7
2017-02-20 03:23:00,1487535780000,-1.3,+1.2,-1.0
2017-02-20 03:23:00,1487535780000,-1.2,+1.4,+2.9
2017-02-20 03:23:00,1487535780000,-0.3,+1.1,-0.2
2017-02-20 03:23:00,1487535780000,-0.8,+0.6,-0.2
2017-02-20 03:24:00,1487535840000,-0.8,-0.5,-0.4
2017-02-20 03:24:00,1487535840000,+0.5,-0.6,-0.5
2017-02-20 03:24:00,1487535840000,+0.8,-0.5,-0.1
2017-02-20 03:24:00,1487535840000,-0.9,-0.2,-0.7
2017-02-20 03:24:00,1487535840000,-0.5,+0.9,-0.2
2017-02-20 03:24:00,1487535840000,-0.3,+0.9,-0.3
2017-02-20 03:24:00,1487535840000,-0.1,+0.6,-0.6
2017-02-20 03:24:00,1487535840000,-0.4,-0.0,-0.8
2017-02-20 03:24:00,1487535840000,-0.4,-0.1,-0.8
2017-02-20 03:24:00,1487535840000,-0.4,-0.1,-0.8
2017-02-20 03:24:00,1487535840000,-0.4,-0.1,-0.8
2017-02-20 03:24:00,1487535840000,-0.4,-0.1,-0.8
2017-02-20 03:24:00,1487535840000,-0.4,-0.1,-0.9
2017-02-20 03:24:00,1487535840000,-0.4,-0.1,-0.9
2017-02-20 03:24:00,1487535840000,-0.4,-0.1,-0.8
2017-02-20 03:24:00,1487535840000,-0.4,-0.1,-0.8
2017-02-20 03:24:00,1487535840000,-0.4,-0.1,-0.8
2017-02-20 03:24:00,1487535840000,-0.4,-0.2,-0.8
2017-02-20 03:24:00,1487535840000,-0.4,-0.2,-0.8
2017-02-20 03:24:00,1487535840000,-0.5,-0.2,-0.8
2017-02-20 03:24:00,1487535840000,-0.4,-0.2,-0.8
2017-02-20 03:24:00,1487535840000,-0.4,-0.2,-0.8
2017-02-20 03:24:00,1487535840000,-0.4,-0.2,-0.8
2017-02-20 03:24:00,1487535840000,-0.4,-0.2,-0.8
2017-02-20 03:24:00,1487535840000,-0.4,-0.2,-0.8
2017-02-20 03:24:00,1487535840000,-0.5,-0.2,-0.8
2017-02-20 03:24:00,1487535840000,-0.5,-0.2,-0.8
2017-02-20 03:24:00,1487535840000,-0.5,-0.2,-0.8
2017-02-20 03:24:00,1487535840000,-0.4,-0.2,-0.8
2017-02-20 03:24:00,1487535840000,-0.5,-0.2,-0.8
2017-02-20 03:24:00,1487535840000,-0.5,-0.2,-0.8
2017-02-20 03:24:00,1487535840000,-0.4,-0.2,-0.8
2017-02-20 03:24:00,1487535840000,-0.4,-0.2,-0.8
2017-02-20 03:24:00,1487535840000,-0.5,-0.2,-0.8
2017-02-20 03:24:00,1487535840000,-0.4,-0.2,-0.8
2017-02-20 03:24:00,1487535840000,-0.4,-0.2,-0.8
2017-02-20 03:24:00,1487535840000,-0.5,-0.3,-0.8
2017-02-20 03:24:00,1487535840000,-0.5,-0.3,-0.8
2017-02-20 03:24:00,1487535840000,-0.5,-0.3,-0.8
2017-02-20 03:24:00,1487535840000,-0.5,-0.3,-0.8
2017-02-20 03:24:00,1487535840000,-0.4,-0.3,-0.8
2017-02-20 03:24:00,1487535840000,-0.5,-0.3,-0.8
2017-02-20 03:24:00,1487535840000,-0.5,-0.3,-0.8
2017-02-20 03:24:00,1487535840000,-0.5,-0.3,-0.8
2017-02-20 03:24:00,1487535840000,-0.5,-0.3,-0.8
2017-02-20 03:24:00,1487535840000,-0.5,-0.3,-0.8
2017-02-20 03:24:00,1487535840000,-0.4,-0.3,-0.8
2017-02-20 03:25:00,1487535900000,-0.5,-0.3,-0.8
2017-02-20 03:25:00,1487535900000,-0.5,-0.3,-0.8
2017-02-20 03:25:00,1487535900000,-0.5,-0.4,-0.8
2017-02-20 03:25:00,1487535900000,-0.5,-0.3,-0.8
2017-02-20 03:25:00,1487535900000,-0.5,-0.4,-0.8
2017-02-20 03:25:00,1487535900000,-0.4,-0.4,-0.8
2017-02-20 03:25:00,1487535900000,-0.4,-0.4,-0.8
2017-02-20 03:25:00,1487535900000,-0.5,-0.4,-0.8
2017-02-20 03:25:00,1487535900000,-0.5,-0.4,-0.8
2017-02-20 03:25:00,1487535900000,-0.5,-0.4,-0.8
2017-02-20 03:25:00,1487535900000,-0.5,-0.4,-0.8
2017-02-20 03:25:00,1487535900000,-0.4,-0.4,-0.8
2017-02-20 03:25:00,1487535900000,-0.1,-0.3,-0.9
2017-02-20 03:25:00,1487535900000,-0.6,-0.4,-0.7
2017-02-20 03:25:00,1487535900000,-0.4,-0.4,-0.7
2017-02-20 03:25:00,1487535900000,-0.5,-0.1,-0.7
2017-02-20 03:25:00,1487535900000,-0.4,-0.3,-0.8
2017-02-20 03:25:00,1487535900000,-0.4,-0.3,-0.8
2017-02-20 03:25:00,1487535900000,-0.4,-0.3,-0.8
2017-02-20 03:25:00,1487535900000,-0.4,-0.3,-0.8
2017-02-20 03:25:00,1487535900000,-0.5,-0.3,-0.8
2017-02-20 03:25:00,1487535900000,-0.4,-0.3,-0.8
2017-02-20 03:25:00,1487535900000,-0.3,-0.4,-0.8
2017-02-20 03:25:00,1487535900000,-0.3,-0.2,-0.9
2017-02-20 03:25:00,1487535900000,-2.0,-0.4,-1.2
2017-02-20 03:25:00,1487535900000,-0.4,-0.3,-0.8
2017-02-20 03:25:00,1487535900000,-0.4,-0.3,-0.8
2017-02-20 03:25:00,1487535900000,-0.5,-0.3,-0.8
2017-02-20 03:25:00,1487535900000,-0.4,-0.3,-0.8
2017-02-20 03:25:00,1487535900000,-0.5,-0.3,-0.8
2017-02-20 03:25:00,1487535900000,-0.5,-0.3,-0.8
2017-02-20 03:25:00,1487535900000,-0.5,-0.3,-0.8
2017-02-20 03:25:00,1487535900000,-0.5,-0.3,-0.8
2017-02-20 03:25:00,1487535900000,-0.4,-0.3,-0.8
2017-02-20 03:25:00,1487535900000,-0.4,-0.3,-0.8
2017-02-20 03:25:00,1487535900000,-0.4,-0.3,-0.8
2017-02-20 03:25:00,1487535900000,-0.5,-0.3,-0.8
2017-02-20 03:25:00,1487535900000,-0.4,-0.3,-0.8
2017-02-20 03:25:00,1487535900000,-0.5,-0.3,-0.8
2017-02-20 03:25:00,1487535900000,-0.5,-0.3,-0.8
2017-02-20 03:25:00,1487535900000,-0.5,-0.3,-0.8
2017-02-20 03:25:00,1487535900000,-0.5,-0.3,-0.8
2017-02-20 03:25:00,1487535900000,-0.5,-0.3,-0.8
2017-02-20 03:25:00,1487535900000,-0.5,-0.3,-0.8
2017-02-20 03:25:00,1487535900000,-0.5,-0.3,-0.8
2017-02-20 03:25:00,1487535900000,-0.5,-0.3,-0.8
2017-02-20 03:25:00,1487535900000,-0.5,-0.3,-0.8
2017-02-20 03:26:00,1487535960000,-0.5,-0.3,-0.8
2017-02-20 03:26:00,1487535960000,-0.5,-0.3,-0.8
2017-02-20 03:26:00,1487535960000,-0.4,-0.3,-0.8
2017-02-20 03:26:00,1487535960000,-0.4,-0.3,-0.8
2017-02-20 03:26:00,1487535960000,-0.4,-0.4,-0.8
2017-02-20 03:26:00,1487535960000,-0.4,-0.3,-1.0
2017-02-20 03:26:00,1487535960000,-0.4,-0.2,-0.8
2017-02-20 03:26:00,1487535960000,-0.4,-0.3,-0.8
2017-02-20 03:26:00,1487535960000,-0.4,-0.3,-0.8
2017-02-20 03:26:00,1487535960000,-0.4,-0.3,-0.8
2017-02-20 03:26:00,1487535960000,-0.4,-0.3,-0.8
2017-02-20 03:26:00,1487535960000,-0.4,-0.3,-0.8
2017-02-20 03:26:00,1487535960000,-0.4,-0.3,-0.8
2017-02-20 03:26:00,1487535960000,-0.5,-0.3,-0.8
2017-02-20 03:26:00,1487535960000,-0.5,-0.3,-0.8
2017-02-20 03:26:00,1487535960000,-0.5,-0.3,-0.8
2017-02-20 03:26:00,1487535960000,-0.5,-0.3,-0.8
2017-02-20 03:26:00,1487535960000,-0.4,-0.3,-0.8
2017-02-20 03:26:00,1487535960000,-0.5,-0.3,-0.8
2017-02-20 03:26:00,1487535960000,-0.5,-0.3,-0.8
2017-02-20 03:26:00,1487535960000,-0.5,-0.3,-0.8
2017-02-20 03:26:00,1487535960000,-0.5,-0.3,-0.7
2017-02-20 03:26:00,1487535960000,-0.5,-0.3,-0.8
2017-02-20 03:26:00,1487535960000,-0.5,-0.3,-0.7
2017-02-20 03:26:00,1487535960000,-0.5,-0.3,-0.8
2017-02-20 03:26:00,1487535960000,-0.5,-0.3,-0.8
2017-02-20 03:26:00,1487535960000,-0.5,-0.3,-0.8
2017-02-20 03:26:00,1487535960000,-0.5,-0.3,-0.8
2017-02-20 03:26:00,1487535960000,-0.5,-0.3,-0.8
2017-02-20 03:26:00,1487535960000,-0.4,-0.3,-0.8
2017-02-20 03:26:00,1487535960000,-0.5,-0.3,-0.8
2017-02-20 03:26:00,1487535960000,-0.5,-0.3,-0.8
2017-02-20 03:26:00,1487535960000,-0.5,-0.3,-0.8
2017-02-20 03:26:00,1487535960000,-0.5,-0.4,-0.7
2017-02-20 03:26:00,1487535960000,-0.5,-0.3,-0.8
2017-02-20 03:26:00,1487535960000,-0.5,-0.4,-0.7
2017-02-20 03:26:00,1487535960000,-0.5,-0.4,-0.8
2017-02-20 03:26:00,1487535960000,-0.5,-0.3,-0.8
2017-02-20 03:26:00,1487535960000,-0.4,-0.3,-0.8
2017-02-20 03:26:00,1487535960000,-0.5,-0.4,-0.8
2017-02-20 03:26:00,1487535960000,-0.5,-0.3,-0.8
2017-02-20 03:26:00,1487535960000,-0.5,-0.3,-0.7
2017-02-20 03:26:00,1487535960000,-0.5,-0.4,-0.7
2017-02-20 03:26:00,1487535960000,-0.4,-0.5,-0.7
2017-02-20 03:26:00,1487535960000,-0.2,-0.3,-0.9
2017-02-20 03:27:00,1487536020000,-0.3,-0.3,-0.8
2017-02-20 03:27:00,1487536020000,-0.4,-0.2,-0.8
2017-02-20 03:27:00,1487536020000,-0.3,-0.2,-0.8
2017-02-20 03:27:00,1487536020000,-0.3,-0.5,-0.4
2017-02-20 03:27:00,1487536020000,-0.5,-0.2,-0.8
2017-02-20 03:27:00,1487536020000,-0.5,-0.2,-0.7
2017-02-20 03:27:00,1487536020000,-0.6,-0.3,-0.7
2017-02-20 03:27:00,1487536020000,-0.5,-0.2,-0.6
2017-02-20 03:27:00,1487536020000,-0.4,-0.2,-0.8
2017-02-20 03:27:00,1487536020000,-0.5,-0.2,-0.8
2017-02-20 03:27:00,1487536020000,-0.5,-0.2,-0.8
2017-02-20 03:27:00,1487536020000,-0.5,-0.2,-0.8
2017-02-20 03:27:00,1487536020000,-0.5,-0.2,-0.8
2017-02-20 03:27:00,1487536020000,-0.5,-0.2,-0.8
2017-02-20 03:27:00,1487536020000,-0.5,-0.3,-0.8
2017-02-20 03:27:00,1487536020000,-0.5,-0.2,-0.8
2017-02-20 03:27:00,1487536020000,-0.5,-0.2,-0.8
2017-02-20 03:27:00,1487536020000,-0.5,-0.3,-0.8
2017-02-20 03:27:00,1487536020000,-0.5,-0.3,-0.8
2017-02-20 03:27:00,1487536020000,-0.5,-0.2,-0.8
2017-02-20 03:27:00,1487536020000,-0.5,-0.2,-0.8
2017-02-20 03:27:00,1487536020000,-0.5,-0.3,-0.8
2017-02-20 03:27:00,1487536020000,-0.5,-0.3,-0.8
2017-02-20 03:27:00,1487536020000,-0.5,-0.3,-0.8
2017-02-20 03:27:00,1487536020000,-0.5,-0.3,-0.8
2017-02-20 03:27:00,1487536020000,-0.5,-0.2,-0.8
2017-02-20 03:27:00,1487536020000,-0.4,-0.4,-0.9
2017-02-20 03:27:00,1487536020000,-0.4,-0.4,-0.9
2017-02-20 03:27:00,1487536020000,-0.4,-0.4,-0.8
2017-02-20 03:27:00,1487536020000,-0.4,-0.2,-0.8
2017-02-20 03:27:00,1487536020000,-0.5,-0.2,-0.8
2017-02-20 03:27:00,1487536020000,-0.5,-0.2,-0.8
2017-02-20 03:27:00,1487536020000,-0.5,-0.2,-0.8
2017-02-20 03:27:00,1487536020000,-0.5,-0.2,-0.8
2017-02-20 03:27:00,1487536020000,-0.5,-0.3,-0.8
2017-02-20 03:27:00,1487536020000,-0.5,-0.2,-0.8
2017-02-20 03:27:00,1487536020000,-0.5,-0.2,-0.8
2017-02-20 03:27:00,1487536020000,-0.1,-0.4,-0.7
2017-02-20 03:27:00,1487536020000,-0.4,-0.4,-0.6
2017-02-20 03:27:00,1487536020000,-0.4,-0.3,-0.8
2017-02-20 03:27:00,1487536020000,-0.4,-0.3,-0.8
2017-02-20 03:27:00,1487536020000,-0.5,-0.3,-0.8
2017-02-20 03:27:00,1487536020000,-0.5,-0.3,-0.8
2017-02-20 03:27:00,1487536020000,-0.5,-0.3,-0.8
2017-02-20 03:27:00,1487536020000,-0.5,-0.3,-0.8
2017-02-20 03:27:00,1487536020000,-0.5,-0.3,-0.8
2017-02-20 03:28:00,1487536080000,-0.5,-0.3,-0.8
2017-02-20 03:28:00,1487536080000,-0.3,-0.4,-0.8
2017-02-20 03:28:00,1487536080000,-0.4,-0.3,-0.8
2017-02-20 03:28:00,1487536080000,-0.5,-0.3,-0.8
2017-02-20 03:28:00,1487536080000,-0.3,-0.4,-0.9
2017-02-20 03:28:00,1487536080000,-0.5,-0.0,-0.6
2017-02-20 03:28:00,1487536080000,-0.5,-0.2,-0.8
2017-02-20 03:28:00,1487536080000,-0.1,-0.5,-0.6
2017-02-20 03:28:00,1487536080000,-0.4,-0.2,-0.9
2017-02-20 03:28:00,1487536080000,-0.4,-0.2,-0.8
2017-02-20 03:28:00,1487536080000,-0.4,-0.3,-0.9
2017-02-20 03:28:00,1487536080000,-0.4,-0.2,-0.9
2017-02-20 03:28:00,1487536080000,-0.4,-0.2,-0.8
2017-02-20 03:28:00,1487536080000,-0.4,-0.2,-0.8
2017-02-20 03:28:00,1487536080000,-0.4,-0.2,-0.8
2017-02-20 03:28:00,1487536080000,-0.2,-0.2,-1.0
2017-02-20 03:28:00,1487536080000,-0.5,+0.0,-0.8
2017-02-20 03:28:00,1487536080000,-0.4,-0.2,-0.8
2017-02-20 03:28:00,1487536080000,-0.5,-0.2,-0.8
2017-02-20 03:28:00,1487536080000,-0.5,-0.2,-0.8
2017-02-20 03:28:00,1487536080000,-0.5,-0.2,-0.8
2017-02-20 03:28:00,1487536080000,-0.5,-0.2,-0.8
2017-02-20 03:28:00,1487536080000,-0.6,+0.6,-0.8
2017-02-20 03:28:00,1487536080000,-0.3,-0.5,-0.9
2017-02-20 03:28:00,1487536080000,-0.4,-0.2,-1.1
2017-02-20 03:28:00,1487536080000,-0.2,-0.5,-0.8
2017-02-20 03:28:00,1487536080000,-0.4,-0.2,-0.8
2017-02-20 03:28:00,1487536080000,-0.5,-0.2,-0.8
2017-02-20 03:28:00,1487536080000,-0.5,-0.2,-0.8
2017-02-20 03:28:00,1487536080000,-0.4,-0.2,-0.9
2017-02-20 03:28:00,1487536080000,-0.4,-0.2,-0.8
2017-02-20 03:28:00,1487536080000,-0.5,-0.2,-0.8
2017-02-20 03:28:00,1487536080000,-0.5,-0.2,-0.8
2017-02-20 03:28:00,1487536080000,-0.5,-0.2,-0.8
2017-02-20 03:28:00,1487536080000,-0.5,-0.2,-0.8
2017-02-20 03:28:00,1487536080000,-0.5,-0.2,-0.8
2017-02-20 03:28:00,1487536080000,-0.5,-0.2,-0.8
2017-02-20 03:28:00,1487536080000,-0.5,-0.3,-0.8
2017-02-20 03:28:00,1487536080000,-0.5,-0.2,-0.8
2017-02-20 03:28:00,1487536080000,-0.5,-0.2,-0.8
2017-02-20 03:28:00,1487536080000,-0.5,-0.3,-0.8
2017-02-20 03:28:00,1487536080000,-0.5,-0.3,-0.8
2017-02-20 03:28:00,1487536080000,-0.5,-0.3,-0.8
2017-02-20 03:28:00,1487536080000,-0.5,-0.3,-0.8
2017-02-20 03:28:00,1487536080000,-0.5,-0.3,-0.8
2017-02-20 03:28:00,1487536080000,-0.5,-0.3,-0.8
2017-02-20 03:28:00,1487536080000,-0.5,-0.3,-0.8
2017-02-20 03:28:00,1487536080000,-0.6,-0.3,-0.7
2017-02-20 03:29:00,1487536140000,-0.5,-0.2,-0.8
2017-02-20 03:29:00,1487536140000,-0.5,-0.2,-0.8
2017-02-20 03:29:00,1487536140000,-0.5,-0.2,-0.8
2017-02-20 03:29:00,1487536140000,-0.5,-0.2,-0.8
2017-02-20 03:29:00,1487536140000,-0.5,-0.2,-0.8
2017-02-20 03:29:00,1487536140000,-0.5,-0.2,-0.8
2017-02-20 03:29:00,1487536140000,-0.5,-0.2,-0.8
2017-02-20 03:29:00,1487536140000,-0.5,-0.2,-0.8
2017-02-20 03:29:00,1487536140000,-0.5,-0.2,-0.8
2017-02-20 03:29:00,1487536140000,-0.5,-0.2,-0.8
2017-02-20 03:29:00,1487536140000,-0.5,-0.2,-0.8
2017-02-20 03:29:00,1487536140000,-0.5,-0.2,-0.8
2017-02-20 03:29:00,1487536140000,-0.5,-0.2,-0.8
2017-02-20 03:29:00,1487536140000,-0.5,-0.2,-0.8
2017-02-20 03:29:00,1487536140000,-0.5,-0.3,-0.8
2017-02-20 03:29:00,1487536140000,-0.5,-0.3,-0.8
2017-02-20 03:29:00,1487536140000,-0.5,-0.2,-0.8
2017-02-20 03:29:00,1487536140000,-0.5,-0.2,-0.8
2017-02-20 03:29:00,1487536140000,-0.5,-0.2,-0.8
2017-02-20 03:29:00,1487536140000,-0.5,-0.2,-0.8
2017-02-20 03:29:00,1487536140000,-0.5,-0.3,-0.8
2017-02-20 03:29:00,1487536140000,-0.5,-0.2,-0.8
2017-02-20 03:29:00,1487536140000,-0.5,-0.2,-0.8
2017-02-20 03:29:00,1487536140000,-0.5,-0.2,-0.8
2017-02-20 03:29:00,1487536140000,-0.5,-0.2,-0.8
2017-02-20 03:29:00,1487536140000,-0.5,-0.3,-0.8
2017-02-20 03:29:00,1487536140000,-0.5,-0.2,-0.8
2017-02-20 03:29:00,1487536140000,-0.5,-0.2,-0.8
2017-02-20 03:29:00,1487536140000,-0.5,-0.2,-0.8
2017-02-20 03:29:00,1487536140000,-0.5,-0.3,-0.8
2017-02-20 03:29:00,1487536140000,-0.5,-0.2,-0.8
2017-02-20 03:29:00,1487536140000,-0.5,-0.3,-0.8
2017-02-20 03:29:00,1487536140000,-0.5,-0.3,-0.8
2017-02-20 03:29:00,1487536140000,-0.5,-0.3,-0.8
2017-02-20 03:29:00,1487536140000,-0.5,-0.3,-0.8
2017-02-20 03:29:00,1487536140000,-0.5,-0.3,-0.8
2017-02-20 03:29:00,1487536140000,-0.5,-0.3,-0.8
2017-02-20 03:29:00,1487536140000,-0.5,-0.3,-0.8
2017-02-20 03:29:00,1487536140000,-0.5,-0.3,-0.8
2017-02-20 03:29:00,1487536140000,-0.5,-0.2,-0.8
2017-02-20 03:29:00,1487536140000,-0.5,-0.3,-0.8
2017-02-20 03:29:00,1487536140000,-0.5,-0.3,-0.8
2017-02-20 03:29:00,1487536140000,-0.6,-0.2,-0.7
2017-02-20 03:29:00,1487536140000,-0.5,-0.3,-0.7
2017-02-20 03:29:00,1487536140000,-0.5,-0.3,-0.8
2017-02-20 03:29:00,1487536140000,-0.5,-0.2,-0.8
2017-02-20 03:30:00,1487536200000,-0.5,-0.2,-0.8
2017-02-20 03:30:00,1487536200000,-0.5,-0.3,-0.8
2017-02-20 03:30:00,1487536200000,-0.5,-0.3,-0.8
2017-02-20 03:30:00,1487536200000,-0.5,-0.3,-0.8
2017-02-20 03:30:00,1487536200000,-0.5,-0.3,-0.8
2017-02-20 03:30:00,1487536200000,-0.5,-0.3,-0.8
2017-02-20 03:30:00,1487536200000,-0.5,-0.3,-0.8
2017-02-20 03:30:00,1487536200000,-0.5,-0.3,-0.8
2017-02-20 03:30:00,1487536200000,-0.5,-0.3,-0.8
2017-02-20 03:30:00,1487536200000,-0.5,-0.3,-0.8
2017-02-20 03:30:00,1487536200000,-0.5,-0.3,-0.8
2017-02-20 03:30:00,1487536200000,-0.5,-0.3,-0.8
2017-02-20 03:30:00,1487536200000,-0.5,-0.3,-0.8
2017-02-20 03:30:00,1487536200000,-0.5,-0.3,-0.7
2017-02-20 03:30:00,1487536200000,-0.5,-0.3,-0.7
2017-02-20 03:30:00,1487536200000,-0.5,-0.3,-0.7
2017-02-20 03:30:00,1487536200000,-0.5,-0.3,-0.7
2017-02-20 03:30:00,1487536200000,-0.5,-0.3,-0.8
2017-02-20 03:30:00,1487536200000,-0.5,-0.3,-0.8
2017-02-20 03:30:00,1487536200000,-0.5,-0.3,-0.7
2017-02-20 03:30:00,1487536200000,-0.5,-0.3,-0.7
2017-02-20 03:30:00,1487536200000,-0.6,-0.3,-0.7
2017-02-20 03:30:00,1487536200000,-0.5,-0.3,-0.7
2017-02-20 03:30:00,1487536200000,-0.5,-0.3,-0.8
2017-02-20 03:30:00,1487536200000,-0.6,-0.3,-0.7
2017-02-20 03:30:00,1487536200000,-0.6,-0.3,-0.7
2017-02-20 03:30:00,1487536200000,-0.6,-0.3,-0.7
2017-02-20 03:30:00,1487536200000,-0.5,-0.3,-0.8
2017-02-20 03:30:00,1487536200000,-0.6,-0.3,-0.7
2017-02-20 03:30:00,1487536200000,-0.6,-0.3,-0.7
2017-02-20 03:30:00,1487536200000,-0.6,-0.3,-0.7
2017-02-20 03:30:00,1487536200000,-0.5,-0.3,-0.8
2017-02-20 03:30:00,1487536200000,-0.5,-0.3,-0.7
2017-02-20 03:30:00,1487536200000,-0.5,-0.3,-0.8
2017-02-20 03:30:00,1487536200000,-0.6,-0.3,-0.7
2017-02-20 03:30:00,1487536200000,-0.6,-0.3,-0.7
2017-02-20 03:30:00,1487536200000,-0.6,-0.3,-0.7
2017-02-20 03:30:00,1487536200000,-0.6,-0.3,-0.7
2017-02-20 03:30:00,1487536200000,-0.6,-0.3,-0.7
2017-02-20 03:30:00,1487536200000,-0.6,-0.3,-0.7
2017-02-20 03:30:00,1487536200000,-0.5,-0.3,-0.8
2017-02-20 03:30:00,1487536200000,-0.5,-0.3,-0.8
2017-02-20 03:30:00,1487536200000,-0.5,-0.3,-0.7
2017-02-20 03:30:00,1487536200000,-0.6,-0.3,-0.7
2017-02-20 03:30:00,1487536200000,-0.6,-0.3,-0.7
2017-02-20 03:30:00,1487536200000,-0.6,-0.3,-0.7
2017-02-20 03:30:00,1487536200000,-0.6,-0.3,-0.7
2017-02-20 03:30:00,1487536200000,-0.5,-0.3,-0.8
2017-02-20 03:30:00,1487536200000,-0.5,-0.3,-0.7
2017-02-20 03:31:00,1487536260000,-0.5,-0.3,-0.7
2017-02-20 03:31:00,1487536260000,-0.5,-0.3,-0.8
2017-02-20 03:31:00,1487536260000,-0.5,-0.3,-0.7
2017-02-20 03:31:00,1487536260000,-0.5,-0.3,-0.8
2017-02-20 03:31:00,1487536260000,-0.6,-0.3,-0.7
2017-02-20 03:31:00,1487536260000,-0.5,-0.3,-0.8
2017-02-20 03:31:00,1487536260000,-0.5,-0.3,-0.8
2017-02-20 03:31:00,1487536260000,-0.5,-0.3,-0.8
2017-02-20 03:31:00,1487536260000,-0.5,-0.3,-0.8
2017-02-20 03:31:00,1487536260000,-0.5,-0.3,-0.8
2017-02-20 03:31:00,1487536260000,-0.5,-0.3,-0.8
2017-02-20 03:31:00,1487536260000,-0.5,-0.3,-0.7
2017-02-20 03:31:00,1487536260000,-0.5,-0.3,-0.7
2017-02-20 03:31:00,1487536260000,-0.5,-0.3,-0.8
2017-02-20 03:31:00,1487536260000,-0.5,-0.3,-0.8
2017-02-20 03:31:00,1487536260000,-0.5,-0.3,-0.7
2017-02-20 03:31:00,1487536260000,-0.5,-0.3,-0.7
2017-02-20 03:31:00,1487536260000,-0.6,-0.3,-0.7
2017-02-20 03:31:00,1487536260000,-0.5,-0.3,-0.7
2017-02-20 03:31:00,1487536260000,-0.5,-0.3,-0.7
2017-02-20 03:31:00,1487536260000,-0.5,-0.3,-0.8
2017-02-20 03:31:00,1487536260000,-0.5,-0.3,-0.8
2017-02-20 03:31:00,1487536260000,-0.5,-0.3,-0.8
2017-02-20 03:31:00,1487536260000,-0.5,-0.3,-0.8
2017-02-20 03:31:00,1487536260000,-0.5,-0.3,-0.8
2017-02-20 03:31:00,1487536260000,-0.5,-0.3,-0.8
2017-02-20 03:31:00,1487536260000,-0.5,-0.3,-0.8
2017-02-20 03:31:00,1487536260000,-0.5,-0.3,-0.7
2017-02-20 03:31:00,1487536260000,-0.5,-0.3,-0.8
2017-02-20 03:31:00,1487536260000,-0.5,-0.3,-0.8
2017-02-20 03:31:00,1487536260000,-0.5,-0.3,-0.8
2017-02-20 03:31:00,1487536260000,-0.5,-0.3,-0.8
2017-02-20 03:31:00,1487536260000,-0.5,-0.3,-0.8
2017-02-20 03:31:00,1487536260000,-0.5,-0.3,-0.8
2017-02-20 03:31:00,1487536260000,-0.5,-0.3,-0.8
2017-02-20 03:31:00,1487536260000,-0.5,-0.3,-0.8
2017-02-20 03:31:00,1487536260000,-0.5,-0.3,-0.8
2017-02-20 03:31:00,1487536260000,-0.5,-0.3,-0.8
2017-02-20 03:31:00,1487536260000,-0.5,-0.3,-0.8
2017-02-20 03:31:00,1487536260000,-0.5,-0.3,-0.8
2017-02-20 03:31:00,1487536260000,-0.5,-0.3,-0.8
2017-02-20 03:31:00,1487536260000,-0.5,-0.3,-0.8
2017-02-20 03:31:00,1487536260000,-0.5,-0.3,-0.8
2017-02-20 03:31:00,1487536260000,-0.5,-0.3,-0.8
2017-02-20 03:31:00,1487536260000,-0.5,-0.3,-0.7
2017-02-20 03:31:00,1487536260000,-0.5,-0.3,-0.7
2017-02-20 03:31:00,1487536260000,-0.5,-0.3,-0.7
2017-02-20 03:31:00,1487536260000,-0.5,-0.3,-0.7
2017-02-20 03:31:00,1487536260000,-0.5,-0.3,-0.8
2017-02-20 03:32:00,1487536320000,-0.5,-0.3,-0.7
2017-02-20 03:32:00,1487536320000,-0.5,-0.3,-0.7
2017-02-20 03:32:00,1487536320000,-0.5,-0.3,-0.7
2017-02-20 03:32:00,1487536320000,-0.5,-0.3,-0.7
2017-02-20 03:32:00,1487536320000,-0.5,-0.3,-0.7
2017-02-20 03:32:00,1487536320000,-0.5,-0.3,-0.7
2017-02-20 03:32:00,1487536320000,-0.5,-0.3,-0.7
2017-02-20 03:32:00,1487536320000,-0.5,-0.3,-0.7
2017-02-20 03:32:00,1487536320000,-0.5,-0.3,-0.7
2017-02-20 03:32:00,1487536320000,-0.5,-0.3,-0.8
2017-02-20 03:32:00,1487536320000,-0.5,-0.3,-0.7
2017-02-20 03:32:00,1487536320000,-0.5,-0.3,-0.7
2017-02-20 03:32:00,1487536320000,-0.5,-0.3,-0.7
2017-02-20 03:32:00,1487536320000,-0.5,-0.4,-0.7
2017-02-20 03:32:00,1487536320000,-0.5,-0.3,-0.7
2017-02-20 03:32:00,1487536320000,-0.5,-0.3,-0.7
2017-02-20 03:32:00,1487536320000,-0.5,-0.3,-0.7
2017-02-20 03:32:00,1487536320000,-0.5,-0.3,-0.7
2017-02-20 03:32:00,1487536320000,-0.5,-0.3,-0.7
2017-02-20 03:32:00,1487536320000,-0.5,-0.4,-0.7
2017-02-20 03:32:00,1487536320000,-0.5,-0.4,-0.7
2017-02-20 03:32:00,1487536320000,-0.5,-0.4,-0.7
2017-02-20 03:32:00,1487536320000,-0.5,-0.4,-0.7
2017-02-20 03:32:00,1487536320000,-0.5,-0.4,-0.7
2017-02-20 03:32:00,1487536320000,-0.5,-0.4,-0.7
2017-02-20 03:32:00,1487536320000,-0.5,-0.4,-0.7
2017-02-20 03:32:00,1487536320000,-0.5,-0.4,-0.7
2017-02-20 03:32:00,1487536320000,-0.5,-0.4,-0.7
2017-02-20 03:32:00,1487536320000,-0.5,-0.4,-0.7
2017-02-20 03:32:00,1487536320000,-0.5,-0.4,-0.7
2017-02-20 03:32:00,1487536320000,-0.5,-0.4,-0.7
2017-02-20 03:32:00,1487536320000,-0.5,-0.4,-0.7
2017-02-20 03:32:00,1487536320000,-0.5,-0.4,-0.7
2017-02-20 03:32:00,1487536320000,-0.5,-0.4,-0.7
2017-02-20 03:32:00,1487536320000,-0.5,-0.4,-0.7
2017-02-20 03:32:00,1487536320000,-0.5,-0.4,-0.7
2017-02-20 03:32:00,1487536320000,-0.6,-0.4,-0.7
2017-02-20 03:32:00,1487536320000,-0.5,-0.3,-0.7
2017-02-20 03:32:00,1487536320000,-0.5,-0.4,-0.7
2017-02-20 03:32:00,1487536320000,-0.5,-0.4,-0.7
2017-02-20 03:32:00,1487536320000,-0.5,-0.4,-0.8
2017-02-20 03:32:00,1487536320000,-0.2,+0.2,-0.9
2017-02-20 03:32:00,1487536320000,-0.4,+0.0,-0.8
2017-02-20 03:32:00,1487536320000,-0.3,+0.0,-0.9
2017-02-20 03:32:00,1487536320000,-0.3,+0.0,-0.9
2017-02-20 03:33:00,1487536380000,-0.3,+0.0,-0.9
2017-02-20 03:33:00,1487536380000,-0.2,+0.1,-0.9
2017-02-20 03:33:00,1487536380000,-0.2,+0.1,-0.9
2017-02-20 03:33:00,1487536380000,-0.2,+0.1,-0.9
2017-02-20 03:33:00,1487536380000,-0.3,+0.0,-0.9
2017-02-20 03:33:00,1487536380000,-0.2,+0.1,-0.9
2017-02-20 03:33:00,1487536380000,-0.2,+0.0,-0.9
2017-02-20 03:33:00,1487536380000,-0.3,+0.1,-0.9
2017-02-20 03:33:00,1487536380000,-0.2,+0.1,-0.9
2017-02-20 03:33:00,1487536380000,-0.2,+0.1,-0.9
2017-02-20 03:33:00,1487536380000,-0.3,+0.1,-0.9
2017-02-20 03:33:00,1487536380000,-0.6,-0.2,-0.8
2017-02-20 03:33:00,1487536380000,-0.4,-0.7,-0.6
2017-02-20 03:33:00,1487536380000,-0.3,-0.8,-0.5
2017-02-20 03:33:00,1487536380000,-0.4,-0.8,-0.4
2017-02-20 03:33:00,1487536380000,-0.4,-0.8,-0.4
2017-02-20 03:33:00,1487536380000,-0.4,-0.8,-0.4
2017-02-20 03:33:00,1487536380000,-0.4,-0.8,-0.4
2017-02-20 03:33:00,1487536380000,-0.4,-0.8,-0.4
2017-02-20 03:33:00,1487536380000,-0.4,-0.8,-0.4
2017-02-20 03:33:00,1487536380000,-0.4,-0.8,-0.4
2017-02-20 03:33:00,1487536380000,-0.4,-0.8,-0.4
2017-02-20 03:33:00,1487536380000,-0.4,-0.8,-0.4
2017-02-20 03:33:00,1487536380000,-0.4,-0.8,-0.4
2017-02-20 03:33:00,1487536380000,-0.4,-0.8,-0.4
2017-02-20 03:33:00,1487536380000,-0.4,-0.8,-0.4
2017-02-20 03:33:00,1487536380000,-0.4,-0.8,-0.4
2017-02-20 03:33:00,1487536380000,-0.4,-0.8,-0.4
2017-02-20 03:33:00,1487536380000,-0.4,-0.8,-0.4
2017-02-20 03:33:00,1487536380000,-0.4,-0.8,-0.4
2017-02-20 03:33:00,1487536380000,-0.4,-0.8,-0.4
2017-02-20 03:33:00,1487536380000,-0.4,-0.8,-0.4
2017-02-20 03:33:00,1487536380000,-0.4,-0.8,-0.4
2017-02-20 03:33:00,1487536380000,-0.4,-0.8,-0.4
2017-02-20 03:33:00,1487536380000,-0.4,-0.8,-0.4
2017-02-20 03:33:00,1487536380000,-0.4,-0.8,-0.4
2017-02-20 03:33:00,1487536380000,-0.4,-0.8,-0.4
2017-02-20 03:33:00,1487536380000,-0.4,-0.8,-0.4
2017-02-20 03:33:00,1487536380000,-0.5,-0.8,-0.4
2017-02-20 03:33:00,1487536380000,-0.5,-0.8,+0.0
2017-02-20 03:33:00,1487536380000,-0.3,-0.9,-0.4
2017-02-20 03:33:00,1487536380000,-0.3,-0.9,-0.3
2017-02-20 03:33:00,1487536380000,-0.3,-0.9,-0.3
2017-02-20 03:34:00,1487536440000,-0.3,-0.9,-0.3
2017-02-20 03:34:00,1487536440000,-0.3,-0.9,-0.3
2017-02-20 03:34:00,1487536440000,-0.3,-0.9,-0.3
2017-02-20 03:34:00,1487536440000,-0.2,-0.9,-0.3
2017-02-20 03:34:00,1487536440000,-0.2,-0.9,-0.3
2017-02-20 03:34:00,1487536440000,-0.3,-0.9,-0.3
2017-02-20 03:34:00,1487536440000,-0.3,-0.9,-0.3
2017-02-20 03:34:00,1487536440000,-0.3,-0.9,-0.3
2017-02-20 03:34:00,1487536440000,-0.3,-0.9,-0.3
2017-02-20 03:34:00,1487536440000,-0.3,-0.9,-0.3
2017-02-20 03:34:00,1487536440000,-0.2,-0.9,-0.3
2017-02-20 03:34:00,1487536440000,-0.3,-0.9,-0.3
2017-02-20 03:34:00,1487536440000,-0.3,-0.9,-0.2
2017-02-20 03:34:00,1487536440000,-0.2,-0.9,-0.2
2017-02-20 03:34:00,1487536440000,-0.2,-0.9,-0.3
2017-02-20 03:34:00,1487536440000,-0.2,-0.9,-0.3
2017-02-20 03:34:00,1487536440000,-0.3,-0.9,-0.2
2017-02-20 03:34:00,1487536440000,-0.3,-0.9,-0.3
2017-02-20 03:34:00,1487536440000,-0.2,-0.9,-0.3
2017-02-20 03:34:00,1487536440000,-0.2,-0.9,-0.3
2017-02-20 03:34:00,1487536440000,-0.2,-0.9,-0.3
2017-02-20 03:34:00,1487536440000,-0.2,-0.9,-0.3
2017-02-20 03:34:00,1487536440000,-0.2,-0.9,-0.2
2017-02-20 03:34:00,1487536440000,-0.2,-0.9,-0.2
2017-02-20 03:34:00,1487536440000,-0.2,-0.9,-0.3
2017-02-20 03:34:00,1487536440000,-0.2,-0.9,-0.3
2017-02-20 03:34:00,1487536440000,-0.2,-0.9,-0.2
2017-02-20 03:34:00,1487536440000,-0.2,-0.9,-0.2
2017-02-20 03:34:00,1487536440000,-0.2,-0.9,-0.2
2017-02-20 03:34:00,1487536440000,-0.2,-0.9,-0.2
2017-02-20 03:34:00,1487536440000,-0.2,-1.0,-0.2
2017-02-20 03:34:00,1487536440000,-0.2,-0.9,-0.2
2017-02-20 03:34:00,1487536440000,-0.2,-0.9,-0.2
2017-02-20 03:34:00,1487536440000,-0.2,-0.9,-0.2
2017-02-20 03:34:00,1487536440000,-0.2,-0.9,-0.2
2017-02-20 03:34:00,1487536440000,-0.2,-0.9,-0.2
2017-02-20 03:34:00,1487536440000,-0.2,-0.9,-0.2
2017-02-20 03:34:00,1487536440000,-0.2,-0.9,-0.2
2017-02-20 03:34:00,1487536440000,-0.2,-1.0,-0.2
2017-02-20 03:34:00,1487536440000,-0.2,-0.9,-0.2
2017-02-20 03:34:00,1487536440000,-0.2,-0.9,-0.2
2017-02-20 03:34:00,1487536440000,-0.2,-0.9,-0.2
2017-02-20 03:34:00,1487536440000,-0.2,-0.9,-0.2
2017-02-20 03:34:00,1487536440000,-0.2,-1.0,-0.2
2017-02-20 03:34:00,1487536440000,-0.2,-0.9,-0.2
2017-02-20 03:34:00,1487536440000,-0.2,-1.0,-0.2
2017-02-20 03:34:00,1487536440000,-0.2,-0.9,-0.2
2017-02-20 03:34:00,1487536440000,-0.2,-0.9,-0.2
2017-02-20 03:35:00,1487536500000,-0.3,-0.9,-0.2
2017-02-20 03:35:00,1487536500000,-0.2,-0.9,-0.2
2017-02-20 03:35:00,1487536500000,-0.2,-0.9,-0.2
2017-02-20 03:35:00,1487536500000,-0.2,-0.9,-0.2
2017-02-20 03:35:00,1487536500000,-0.2,-0.9,-0.2
2017-02-20 03:35:00,1487536500000,-0.2,-0.9,-0.2
2017-02-20 03:35:00,1487536500000,-0.2,-0.9,-0.2
2017-02-20 03:35:00,1487536500000,-0.2,-0.9,-0.2
2017-02-20 03:35:00,1487536500000,-0.1,-1.0,-0.3
2017-02-20 03:35:00,1487536500000,-0.4,-0.8,-0.4
2017-02-20 03:35:00,1487536500000,-0.4,-0.5,-0.7
2017-02-20 03:35:00,1487536500000,-0.2,-0.6,-0.7
2017-02-20 03:35:00,1487536500000,-0.8,-0.3,-0.2
2017-02-20 03:35:00,1487536500000,-0.1,-0.6,-0.8
2017-02-20 03:35:00,1487536500000,+0.1,-0.5,-0.8
2017-02-20 03:35:00,1487536500000,+0.1,-0.6,-0.7
2017-02-20 03:35:00,1487536500000,+0.1,-0.6,-0.8
2017-02-20 03:35:00,1487536500000,+0.1,-0.6,-0.8
2017-02-20 03:35:00,1487536500000,+0.1,-0.6,-0.8
2017-02-20 03:35:00,1487536500000,+0.1,-0.6,-0.8
2017-02-20 03:35:00,1487536500000,+0.1,-0.6,-0.8
2017-02-20 03:35:00,1487536500000,+0.0,-0.6,-0.8
2017-02-20 03:35:00,1487536500000,+0.0,-0.6,-0.8
2017-02-20 03:35:00,1487536500000,-0.0,-0.7,-0.8
2017-02-20 03:35:00,1487536500000,+0.0,-0.6,-0.7
2017-02-20 03:35:00,1487536500000,-0.1,-0.5,-0.8
2017-02-20 03:35:00,1487536500000,-0.1,-0.6,-0.8
2017-02-20 03:35:00,1487536500000,+0.0,-0.6,-0.8
2017-02-20 03:35:00,1487536500000,+2.6,-0.5,-1.7
2017-02-20 03:35:00,1487536500000,+0.5,-0.1,-0.8
2017-02-20 03:35:00,1487536500000,+0.5,-0.2,-0.8
2017-02-20 03:35:00,1487536500000,+0.5,-0.2,-0.8
2017-02-20 03:35:00,1487536500000,+0.4,-0.2,-0.9
2017-02-20 03:35:00,1487536500000,+0.3,-0.2,-0.8
2017-02-20 03:35:00,1487536500000,+0.3,-0.2,-0.9
2017-02-20 03:35:00,1487536500000,+0.3,-0.2,-0.9
2017-02-20 03:35:00,1487536500000,+0.3,-0.2,-0.9
2017-02-20 03:35:00,1487536500000,+0.3,-0.3,-0.9
2017-02-20 03:35:00,1487536500000,+0.2,-0.2,-0.8
2017-02-20 03:35:00,1487536500000,-0.2,-0.3,-1.0
2017-02-20 03:35:00,1487536500000,-0.0,-0.3,-0.8
2017-02-20 03:35:00,1487536500000,-0.4,-0.2,+0.0
2017-02-20 03:35:00,1487536500000,+0.4,-0.2,-0.8
2017-02-20 03:35:00,1487536500000,+0.2,-0.3,-0.8
2017-02-20 03:35:00,1487536500000,+0.4,-0.2,-0.9
2017-02-20 03:35:00,1487536500000,+0.3,-0.3,-0.9
2017-02-20 03:35:00,1487536500000,+0.2,-0.3,-0.9
2017-02-20 03:35:00,1487536500000,+0.1,-0.4,-0.8
2017-02-20 03:36:00,1487536560000,+0.2,-0.4,-0.9
2017-02-20 03:36:00,1487536560000,+0.2,-0.3,-1.0
2017-02-20 03:36:00,1487536560000,+0.2,-0.3,-0.9
2017-02-20 03:36:00,1487536560000,+0.1,-0.4,-0.9
2017-02-20 03:36:00,1487536560000,+0.1,-0.3,-0.9
2017-02-20 03:36:00,1487536560000,-0.1,-0.4,-0.8
2017-02-20 03:36:00,1487536560000,-0.2,-0.4,-0.9
2017-02-20 03:36:00,1487536560000,-0.5,-0.4,-0.8
2017-02-20 03:36:00,1487536560000,-0.7,-0.4,-0.6
2017-02-20 03:36:00,1487536560000,+0.5,-0.1,-0.8
2017-02-20 03:36:00,1487536560000,+0.6,-0.2,-0.8
2017-02-20 03:36:00,1487536560000,+0.4,-0.2,-0.9
2017-02-20 03:36:00,1487536560000,+0.3,-0.1,-0.9
2017-02-20 03:36:00,1487536560000,+0.3,-0.1,-0.9
2017-02-20 03:36:00,1487536560000,+0.3,-0.1,-0.9
2017-02-20 03:36:00,1487536560000,+0.3,-0.1,-0.9
2017-02-20 03:36:00,1487536560000,+0.0,-0.0,-0.8
2017-02-20 03:36:00,1487536560000,+0.3,-0.1,-0.9
2017-02-20 03:36:00,1487536560000,+0.3,-0.1,-0.9
2017-02-20 03:36:00,1487536560000,+0.3,-0.1,-0.9
2017-02-20 03:36:00,1487536560000,+0.3,-0.1,-0.9
2017-02-20 03:36:00,1487536560000,+0.3,-0.1,-0.9
2017-02-20 03:36:00,1487536560000,+0.3,+0.3,-0.9
2017-02-20 03:36:00,1487536560000,+0.3,-0.1,-0.9
2017-02-20 03:36:00,1487536560000,+0.2,-0.1,-0.9
2017-02-20 03:36:00,1487536560000,+0.3,-0.1,-0.9
2017-02-20 03:36:00,1487536560000,+0.3,-0.1,-0.9
2017-02-20 03:36:00,1487536560000,+0.3,-0.1,-0.9
2017-02-20 03:36:00,1487536560000,+0.6,-0.6,-1.0
2017-02-20 03:36:00,1487536560000,+0.3,-0.1,-0.9
2017-02-20 03:36:00,1487536560000,-0.1,-0.1,-0.9
2017-02-20 03:36:00,1487536560000,+0.2,-0.1,-0.9
2017-02-20 03:36:00,1487536560000,+0.2,-0.1,-0.9
2017-02-20 03:36:00,1487536560000,+0.2,-0.1,-0.9
2017-02-20 03:36:00,1487536560000,+0.1,-0.2,-0.9
2017-02-20 03:36:00,1487536560000,+0.2,-0.1,-0.9
2017-02-20 03:36:00,1487536560000,+0.1,-0.1,-1.0
2017-02-20 03:36:00,1487536560000,+0.1,-0.1,-1.0
2017-02-20 03:36:00,1487536560000,+0.1,-0.1,-0.9
2017-02-20 03:36:00,1487536560000,+0.1,-0.1,-1.0
2017-02-20 03:36:00,1487536560000,+0.1,-0.1,-1.0
2017-02-20 03:36:00,1487536560000,-1.0,-0.1,-0.4
2017-02-20 03:36:00,1487536560000,+0.2,-0.1,-0.9
2017-02-20 03:36:00,1487536560000,+2.3,-0.3,-1.7
2017-02-20 03:36:00,1487536560000,-0.8,-0.8,-0.5
2017-02-20 03:36:00,1487536560000,+0.6,-0.2,-1.0
2017-02-20 03:36:00,1487536560000,+0.4,-0.0,-0.9
2017-02-20 03:36:00,1487536560000,+0.9,+0.1,-0.4
2017-02-20 03:36:00,1487536560000,+0.5,-0.9,+0.8
2017-02-20 03:36:00,1487536560000,-0.9,-0.5,-0.4
2017-02-20 03:36:00,1487536560000,+0.1,-0.9,-0.2
2017-02-20 03:37:00,1487536620000,-0.8,+0.4,+0.0
2017-02-20 03:37:00,1487536620000,+0.1,+0.2,-0.9
2017-02-20 03:37:00,1487536620000,+0.1,+0.2,-0.9
2017-02-20 03:37:00,1487536620000,+0.2,-0.8,-0.5
2017-02-20 03:37:00,1487536620000,+0.3,-0.5,-0.9
2017-02-20 03:37:00,1487536620000,-1.1,+0.3,-0.0
2017-02-20 03:37:00,1487536620000,-0.9,+0.2,-0.3
2017-02-20 03:37:00,1487536620000,-0.9,+0.3,+0.1
2017-02-20 03:37:00,1487536620000,-0.5,-0.6,-0.7
2017-02-20 03:37:00,1487536620000,-0.2,-0.3,-1.0
2017-02-20 03:37:00,1487536620000,-0.4,-0.2,-0.8
2017-02-20 03:37:00,1487536620000,-0.5,-0.2,-0.8
2017-02-20 03:37:00,1487536620000,-0.5,-0.2,-0.8
2017-02-20 03:37:00,1487536620000,-0.4,-0.2,-0.8
2017-02-20 03:37:00,1487536620000,-0.4,-0.2,-0.8
2017-02-20 03:37:00,1487536620000,-0.4,-0.3,-0.8
2017-02-20 03:37:00,1487536620000,-0.3,-0.1,-0.9
2017-02-20 03:37:00,1487536620000,-0.3,-0.1,-0.9
2017-02-20 03:37:00,1487536620000,-0.3,-0.1,-0.9
2017-02-20 03:37:00,1487536620000,-0.3,-0.1,-0.9
2017-02-20 03:37:00,1487536620000,-0.3,-0.1,-0.9
2017-02-20 03:37:00,1487536620000,-0.4,-0.1,-0.9
2017-02-20 03:37:00,1487536620000,-0.4,-0.1,-0.9
2017-02-20 03:37:00,1487536620000,-0.3,-0.1,-0.9
2017-02-20 03:37:00,1487536620000,-0.3,-0.1,-0.9
2017-02-20 03:37:00,1487536620000,-0.4,-0.1,-0.9
2017-02-20 03:37:00,1487536620000,-0.4,-0.1,-0.9
2017-02-20 03:37:00,1487536620000,-0.4,-0.1,-0.9
2017-02-20 03:37:00,1487536620000,-0.4,-0.1,-0.9
2017-02-20 03:37:00,1487536620000,-0.4,-0.1,-0.9
2017-02-20 03:37:00,1487536620000,-0.3,-0.1,-0.9
2017-02-20 03:37:00,1487536620000,-0.3,-0.1,-0.9
2017-02-20 03:37:00,1487536620000,-0.4,-0.1,-0.9
2017-02-20 03:37:00,1487536620000,-0.4,-0.1,-0.9
2017-02-20 03:37:00,1487536620000,-0.3,-0.1,-0.9
2017-02-20 03:37:00,1487536620000,-0.3,-0.1,-0.9
2017-02-20 03:37:00,1487536620000,-0.3,-0.1,-0.9
2017-02-20 03:37:00,1487536620000,-0.4,-0.1,-0.9
2017-02-20 03:37:00,1487536620000,-0.3,-0.1,-0.9
2017-02-20 03:37:00,1487536620000,-0.3,-0.1,-0.9
2017-02-20 03:37:00,1487536620000,-0.3,-0.1,-0.9
2017-02-20 03:37:00,1487536620000,-0.3,-0.1,-0.9
2017-02-20 03:37:00,1487536620000,-0.3,-0.1,-0.9
2017-02-20 03:37:00,1487536620000,-0.3,-0.1,-0.9
2017-02-20 03:37:00,1487536620000,-0.3,-0.1,-0.9
2017-02-20 03:37:00,1487536620000,-0.3,-0.1,-0.9
2017-02-20 03:37:00,1487536620000,-0.4,-0.1,-0.8
2017-02-20 03:37:00,1487536620000,-0.3,-0.1,-0.9
2017-02-20 03:37:00,1487536620000,-0.4,-0.1,-0.9
2017-02-20 03:37:00,1487536620000,-0.3,-0.1,-0.9
2017-02-20 03:38:00,1487536680000,-0.3,-0.1,-0.9
2017-02-20 03:38:00,1487536680000,-0.4,-0.1,-0.9
2017-02-20 03:38:00,1487536680000,-0.4,-0.1,-0.9
2017-02-20 03:38:00,1487536680000,-0.4,-0.1,-0.9
2017-02-20 03:38:00,1487536680000,-0.4,-0.1,-0.9
2017-02-20 03:38:00,1487536680000,-0.6,-0.1,-0.7
2017-02-20 03:38:00,1487536680000,-0.4,-0.1,-1.0
2017-02-20 03:38:00,1487536680000,-0.8,-0.2,-0.4
2017-02-20 03:38:00,1487536680000,-0.6,-0.1,-0.8
2017-02-20 03:38:00,1487536680000,-0.5,-0.2,-0.8
2017-02-20 03:38:00,1487536680000,-0.4,-0.1,-0.9
2017-02-20 03:38:00,1487536680000,-0.4,-0.1,-0.9
2017-02-20 03:38:00,1487536680000,-0.4,-0.1,-0.9
2017-02-20 03:38:00,1487536680000,-0.3,-0.1,-0.9
2017-02-20 03:38:00,1487536680000,-0.4,-0.1,-0.9
2017-02-20 03:38:00,1487536680000,-0.4,-0.1,-0.9
2017-02-20 03:38:00,1487536680000,-0.4,-0.1,-0.9
2017-02-20 03:38:00,1487536680000,-0.4,-0.1,-0.8
2017-02-20 03:38:00,1487536680000,-0.4,-0.1,-0.9
2017-02-20 03:38:00,1487536680000,-0.3,-0.1,-0.9
2017-02-20 03:38:00,1487536680000,-0.4,-0.1,-0.9
2017-02-20 03:38:00,1487536680000,-0.4,-0.1,-0.9
2017-02-20 03:38:00,1487536680000,-0.4,-0.1,-0.9
2017-02-20 03:38:00,1487536680000,-0.4,-0.1,-0.9
2017-02-20 03:38:00,1487536680000,-0.4,-0.1,-0.9
2017-02-20 03:38:00,1487536680000,-0.4,-0.1,-0.9
2017-02-20 03:38:00,1487536680000,-0.3,-0.1,-0.9
2017-02-20 03:38:00,1487536680000,-0.9,-0.4,-0.3
2017-02-20 03:38:00,1487536680000,-0.9,-0.4,-0.2
2017-02-20 03:38:00,1487536680000,-0.9,-0.4,-0.2
2017-02-20 03:38:00,1487536680000,-0.0,-0.6,-0.7
2017-02-20 03:38:00,1487536680000,-0.1,-0.6,-0.8
2017-02-20 03:38:00,1487536680000,-0.0,-0.6,-0.7
2017-02-20 03:38:00,1487536680000,+0.0,-0.6,-0.8
2017-02-20 03:38:00,1487536680000,-0.1,-0.6,-0.8
2017-02-20 03:38:00,1487536680000,-0.1,-0.6,-0.8
2017-02-20 03:38:00,1487536680000,-0.1,-0.5,-1.0
2017-02-20 03:38:00,1487536680000,-0.8,-0.5,+0.1
2017-02-20 03:38:00,1487536680000,-0.8,-0.6,-0.2
2017-02-20 03:38:00,1487536680000,-0.8,-0.6,-0.2
2017-02-20 03:38:00,1487536680000,-0.8,-0.5,-0.2
2017-02-20 03:38:00,1487536680000,-0.8,-0.5,-0.2
2017-02-20 03:38:00,1487536680000,-0.8,-0.5,-0.1
2017-02-20 03:38:00,1487536680000,-0.8,-0.6,-0.1
2017-02-20 03:38:00,1487536680000,-0.8,-0.5,-0.1
2017-02-20 03:38:00,1487536680000,-0.8,-0.5,-0.1
2017-02-20 03:38:00,1487536680000,-0.8,-0.5,-0.2
2017-02-20 03:38:00,1487536680000,-0.8,-0.5,-0.2
2017-02-20 03:38:00,1487536680000,-0.8,-0.5,-0.2
2017-02-20 03:38:00,1487536680000,-0.8,-0.5,-0.2
2017-02-20 03:38:00,1487536680000,-0.8,-0.5,-0.2
2017-02-20 03:39:00,1487536740000,-0.8,-0.5,-0.2
2017-02-20 03:39:00,1487536740000,-0.8,-0.5,-0.2
2017-02-20 03:39:00,1487536740000,-0.8,-0.5,-0.2
2017-02-20 03:39:00,1487536740000,-0.8,-0.5,-0.2
2017-02-20 03:39:00,1487536740000,-0.8,-0.5,-0.2
2017-02-20 03:39:00,1487536740000,-0.8,-0.5,-0.1
2017-02-20 03:39:00,1487536740000,-0.8,-0.5,-0.1
2017-02-20 03:39:00,1487536740000,-0.8,-0.5,-0.1
2017-02-20 03:39:00,1487536740000,-0.8,-0.5,-0.1
2017-02-20 03:39:00,1487536740000,-0.8,-0.5,-0.1
2017-02-20 03:39:00,1487536740000,-0.8,-0.5,-0.1
2017-02-20 03:39:00,1487536740000,-0.8,-0.5,-0.1
2017-02-20 03:39:00,1487536740000,-0.8,-0.5,-0.1
2017-02-20 03:39:00,1487536740000,-0.8,-0.5,-0.1
2017-02-20 03:39:00,1487536740000,-0.8,-0.5,-0.1
2017-02-20 03:39:00,1487536740000,-0.8,-0.5,-0.1
2017-02-20 03:39:00,1487536740000,-0.8,-0.5,-0.1
2017-02-20 03:39:00,1487536740000,-0.8,-0.5,-0.1
2017-02-20 03:39:00,1487536740000,-0.8,-0.5,-0.2
2017-02-20 03:39:00,1487536740000,-0.8,-0.5,-0.1
2017-02-20 03:39:00,1487536740000,-0.8,-0.5,-0.1
2017-02-20 03:39:00,1487536740000,-0.8,-0.5,-0.1
2017-02-20 03:39:00,1487536740000,-0.8,-0.5,+0.0
2017-02-20 03:39:00,1487536740000,-0.8,-0.5,+0.0
2017-02-20 03:39:00,1487536740000,-0.8,-0.5,+0.0
2017-02-20 03:39:00,1487536740000,-0.8,-0.6,+0.0
2017-02-20 03:39:00,1487536740000,-0.8,-0.6,-0.0
2017-02-20 03:39:00,1487536740000,-0.8,-0.6,-0.1
2017-02-20 03:39:00,1487536740000,-0.8,-0.6,-0.1
2017-02-20 03:39:00,1487536740000,-0.8,-0.6,-0.1
2017-02-20 03:39:00,1487536740000,-0.8,-0.5,-0.1
2017-02-20 03:39:00,1487536740000,-0.8,-0.6,-0.1
2017-02-20 03:39:00,1487536740000,-0.8,-0.6,-0.1
2017-02-20 03:39:00,1487536740000,-0.8,-0.5,-0.1
2017-02-20 03:39:00,1487536740000,-0.8,-0.6,-0.1
2017-02-20 03:39:00,1487536740000,-0.8,-0.5,-0.1
2017-02-20 03:39:00,1487536740000,-0.8,-0.6,-0.1
2017-02-20 03:39:00,1487536740000,-0.8,-0.5,-0.1
2017-02-20 03:39:00,1487536740000,-0.8,-0.6,-0.1
2017-02-20 03:39:00,1487536740000,-0.8,-0.6,-0.1
2017-02-20 03:39:00,1487536740000,-0.8,-0.5,-0.1
2017-02-20 03:39:00,1487536740000,-0.8,-0.6,-0.1
2017-02-20 03:39:00,1487536740000,-0.8,-0.6,-0.1
2017-02-20 03:39:00,1487536740000,-0.8,-0.6,-0.1
2017-02-20 03:39:00,1487536740000,-0.8,-0.6,-0.1
2017-02-20 03:39:00,1487536740000,-0.8,-0.6,-0.1
2017-02-20 03:39:00,1487536740000,-0.8,-0.6,-0.1
2017-02-20 03:39:00,1487536740000,-0.8,-0.6,-0.1
2017-02-20 03:39:00,1487536740000,-0.8,-0.6,-0.1
2017-02-20 03:39:00,1487536740000,-0.8,-0.6,-0.1
2017-02-20 03:39:00,1487536740000,-0.8,-0.6,-0.1
2017-02-20 03:40:00,1487536800000,-0.8,-0.6,-0.1
2017-02-20 03:40:00,1487536800000,-0.8,-0.6,+0.0
2017-02-20 03:40:00,1487536800000,-0.8,-0.6,+0.1
2017-02-20 03:40:00,1487536800000,+0.2,-0.1,-0.9
2017-02-20 03:40:00,1487536800000,-0.3,-0.7,-0.6
2017-02-20 03:40:00,1487536800000,-0.1,-0.5,-0.8
2017-02-20 03:40:00,1487536800000,-0.2,-0.5,-0.8
2017-02-20 03:40:00,1487536800000,-0.1,-0.5,-0.8
2017-02-20 03:40:00,1487536800000,-0.2,-0.5,-0.8
2017-02-20 03:40:00,1487536800000,-0.2,-0.5,-0.9
2017-02-20 03:40:00,1487536800000,-0.2,-0.5,-0.8
2017-02-20 03:40:00,1487536800000,-0.2,-0.5,-0.8
2017-02-20 03:40:00,1487536800000,-0.1,-0.5,-0.9
2017-02-20 03:40:00,1487536800000,-0.1,-0.5,-0.8
2017-02-20 03:40:00,1487536800000,-0.2,-0.5,-0.8
2017-02-20 03:40:00,1487536800000,-0.2,-0.5,-0.8
2017-02-20 03:40:00,1487536800000,-0.2,-0.4,-0.8
2017-02-20 03:40:00,1487536800000,-0.1,-0.5,-0.8
2017-02-20 03:40:00,1487536800000,-0.2,-0.5,-0.9
2017-02-20 03:40:00,1487536800000,-0.2,-0.5,-0.8
2017-02-20 03:40:00,1487536800000,-0.2,-0.5,-0.8
2017-02-20 03:40:00,1487536800000,-0.2,-0.5,-0.8
2017-02-20 03:40:00,1487536800000,-0.2,-0.5,-0.8
2017-02-20 03:40:00,1487536800000,-0.3,-0.5,-0.7
2017-02-20 03:40:00,1487536800000,-0.7,-0.6,-0.1
2017-02-20 03:40:00,1487536800000,-0.7,-0.6,-0.2
2017-02-20 03:40:00,1487536800000,-0.7,-0.6,-0.3
2017-02-20 03:40:00,1487536800000,-0.7,-0.6,-0.2
2017-02-20 03:40:00,1487536800000,-0.7,-0.6,-0.2
2017-02-20 03:40:00,1487536800000,-0.8,-0.6,-0.2
2017-02-20 03:40:00,1487536800000,-0.7,-0.6,-0.3
2017-02-20 03:40:00,1487536800000,-0.7,-0.6,-0.2
2017-02-20 03:40:00,1487536800000,-0.2,-0.1,-0.9
2017-02-20 03:40:00,1487536800000,-0.4,-0.2,-0.8
2017-02-20 03:40:00,1487536800000,-0.9,-0.4,-0.4
2017-02-20 03:40:00,1487536800000,-0.8,-0.6,-0.1
2017-02-20 03:40:00,1487536800000,-0.8,-0.6,-0.2
2017-02-20 03:40:00,1487536800000,-0.8,-0.6,-0.2
2017-02-20 03:40:00,1487536800000,-0.8,-0.6,-0.2
2017-02-20 03:40:00,1487536800000,-0.8,-0.6,-0.2
2017-02-20 03:40:00,1487536800000,-0.8,-0.6,-0.2
2017-02-20 03:40:00,1487536800000,-0.8,-0.6,-0.2
2017-02-20 03:40:00,1487536800000,-0.8,-0.6,-0.2
2017-02-20 03:40:00,1487536800000,-0.7,-0.6,-0.2
2017-02-20 03:40:00,1487536800000,-0.8,-0.6,-0.1
2017-02-20 03:40:00,1487536800000,-0.8,-0.6,-0.1
2017-02-20 03:40:00,1487536800000,-1.1,-0.6,-0.0
2017-02-20 03:40:00,1487536800000,-0.2,-0.8,-0.6
2017-02-20 03:40:00,1487536800000,-0.3,-0.8,-0.5
2017-02-20 03:40:00,1487536800000,-0.1,-0.8,-0.6
2017-02-20 03:40:00,1487536800000,-0.1,-0.7,-0.6
2017-02-20 03:40:00,1487536800000,-0.7,-0.6,-0.4
2017-02-20 03:41:00,1487536860000,-0.7,-0.6,-0.3
2017-02-20 03:41:00,1487536860000,-0.7,-0.5,-0.4
2017-02-20 03:41:00,1487536860000,-0.7,-0.6,-0.4
2017-02-20 03:41:00,1487536860000,-0.7,-0.6,-0.4
2017-02-20 03:41:00,1487536860000,-0.7,-0.6,-0.3
2017-02-20 03:41:00,1487536860000,-0.3,-0.6,-0.7
2017-02-20 03:41:00,1487536860000,-0.4,-0.5,-0.8
2017-02-20 03:41:00,1487536860000,-0.7,-0.5,-0.3
2017-02-20 03:41:00,1487536860000,-0.8,-0.5,-0.3
2017-02-20 03:41:00,1487536860000,-0.7,-0.6,-0.3
2017-02-20 03:41:00,1487536860000,-0.7,-0.6,-0.3
2017-02-20 03:41:00,1487536860000,-0.7,-0.6,-0.3
2017-02-20 03:41:00,1487536860000,-0.7,-0.6,-0.3
2017-02-20 03:41:00,1487536860000,-0.7,-0.6,-0.3
2017-02-20 03:41:00,1487536860000,-0.7,-0.6,-0.4
2017-02-20 03:41:00,1487536860000,-0.7,-0.6,-0.4
2017-02-20 03:41:00,1487536860000,-0.7,-0.6,-0.4
2017-02-20 03:41:00,1487536860000,-0.7,-0.6,-0.3
2017-02-20 03:41:00,1487536860000,-0.7,-0.6,-0.4
2017-02-20 03:41:00,1487536860000,-0.7,-0.6,-0.4
2017-02-20 03:41:00,1487536860000,-0.7,-0.6,-0.3
2017-02-20 03:41:00,1487536860000,-0.7,-0.6,-0.4
2017-02-20 03:41:00,1487536860000,-0.7,-0.6,-0.3
2017-02-20 03:41:00,1487536860000,-0.7,-0.6,-0.4
2017-02-20 03:41:00,1487536860000,-0.7,-0.6,-0.3
2017-02-20 03:41:00,1487536860000,-0.7,-0.6,-0.4
2017-02-20 03:41:00,1487536860000,-0.7,-0.6,-0.2
2017-02-20 03:41:00,1487536860000,-0.7,-0.6,-0.4
2017-02-20 03:41:00,1487536860000,-0.7,-0.6,-0.3
2017-02-20 03:41:00,1487536860000,-0.7,-0.6,-0.3
2017-02-20 03:41:00,1487536860000,-0.7,-0.6,-0.3
2017-02-20 03:41:00,1487536860000,-0.7,-0.6,-0.3
2017-02-20 03:41:00,1487536860000,-0.7,-0.6,-0.3
2017-02-20 03:41:00,1487536860000,-0.7,-0.6,-0.4
2017-02-20 03:41:00,1487536860000,-0.7,-0.6,-0.4
2017-02-20 03:41:00,1487536860000,-0.7,-0.6,-0.4
2017-02-20 03:41:00,1487536860000,-0.7,-0.6,-0.4
2017-02-20 03:41:00,1487536860000,-0.7,-0.6,-0.3
2017-02-20 03:41:00,1487536860000,-0.7,-0.6,-0.3
2017-02-20 03:41:00,1487536860000,-0.7,-0.6,-0.3
2017-02-20 03:41:00,1487536860000,-0.6,-0.6,-0.4
2017-02-20 03:41:00,1487536860000,-0.6,-0.6,-0.4
2017-02-20 03:41:00,1487536860000,-0.7,-0.6,-0.4
2017-02-20 03:41:00,1487536860000,-0.7,-0.6,-0.4
2017-02-20 03:41:00,1487536860000,-0.6,-0.6,-0.4
2017-02-20 03:41:00,1487536860000,-0.6,-0.6,-0.4
2017-02-20 03:41:00,1487536860000,-0.6,-0.6,-0.4
2017-02-20 03:41:00,1487536860000,-0.8,-0.6,+0.3
2017-02-20 03:41:00,1487536860000,-0.5,-0.8,+0.1
2017-02-20 03:41:00,1487536860000,-0.5,-0.8,+0.1
2017-02-20 03:42:00,1487536920000,-0.6,-0.8,+0.1
2017-02-20 03:42:00,1487536920000,-0.6,-0.8,-0.0
2017-02-20 03:42:00,1487536920000,-0.6,-0.8,-0.0
2017-02-20 03:42:00,1487536920000,-0.6,-0.6,-0.2
2017-02-20 03:42:00,1487536920000,-0.0,+0.1,-1.0
2017-02-20 03:42:00,1487536920000,-0.7,-0.2,-0.6
2017-02-20 03:42:00,1487536920000,-0.2,-0.2,-0.9
2017-02-20 03:42:00,1487536920000,-0.4,-0.2,-0.8
2017-02-20 03:42:00,1487536920000,-0.8,-0.3,-0.4
2017-02-20 03:42:00,1487536920000,-0.3,-0.4,-0.8
2017-02-20 03:42:00,1487536920000,-0.6,-0.7,-0.5
2017-02-20 03:42:00,1487536920000,-0.2,-0.6,-0.7
2017-02-20 03:42:00,1487536920000,-0.7,-0.6,-0.3
2017-02-20 03:42:00,1487536920000,-0.4,-0.6,-0.6
2017-02-20 03:42:00,1487536920000,-0.4,-0.7,-0.6
2017-02-20 03:42:00,1487536920000,-0.4,-0.7,-0.6
2017-02-20 03:42:00,1487536920000,-0.4,-0.7,-0.6
2017-02-20 03:42:00,1487536920000,-0.5,-0.7,-0.6
2017-02-20 03:42:00,1487536920000,-0.6,-0.7,-0.3
2017-02-20 03:42:00,1487536920000,-0.6,-0.7,-0.3
2017-02-20 03:42:00,1487536920000,-0.7,-0.7,-0.2
2017-02-20 03:42:00,1487536920000,-0.6,-0.7,-0.3
2017-02-20 03:42:00,1487536920000,-0.7,-0.4,-0.5
2017-02-20 03:42:00,1487536920000,-0.9,-0.4,-0.2
2017-02-20 03:42:00,1487536920000,-0.8,-0.3,-0.4
2017-02-20 03:42:00,1487536920000,-0.8,-0.4,-0.4
2017-02-20 03:42:00,1487536920000,-1.0,-0.3,-0.3
2017-02-20 03:42:00,1487536920000,-0.3,-0.6,-0.7
2017-02-20 03:42:00,1487536920000,-0.2,-0.7,-0.7
2017-02-20 03:42:00,1487536920000,-0.4,-0.6,-0.6
2017-02-20 03:42:00,1487536920000,-0.4,-0.6,-0.6
2017-02-20 03:42:00,1487536920000,-0.6,-0.4,-0.5
2017-02-20 03:42:00,1487536920000,-0.5,-0.5,-0.6
2017-02-20 03:42:00,1487536920000,-0.6,-0.5,-0.6
2017-02-20 03:42:00,1487536920000,-0.6,-0.5,-0.6
2017-02-20 03:42:00,1487536920000,-0.6,-0.5,-0.6
2017-02-20 03:42:00,1487536920000,-0.6,-0.5,-0.6
2017-02-20 03:42:00,1487536920000,-0.6,-0.5,-0.6
2017-02-20 03:42:00,1487536920000,-0.6,-0.5,-0.6
2017-02-20 03:42:00,1487536920000,-0.6,-0.5,-0.6
2017-02-20 03:42:00,1487536920000,-0.6,-0.5,-0.6
2017-02-20 03:42:00,1487536920000,-0.6,-0.5,-0.6
2017-02-20 03:42:00,1487536920000,-0.6,-0.5,-0.6
2017-02-20 03:42:00,1487536920000,-0.4,-0.6,-0.7
2017-02-20 03:42:00,1487536920000,-0.4,-0.5,-0.7
2017-02-20 03:42:00,1487536920000,-0.4,-0.5,-0.7
2017-02-20 03:42:00,1487536920000,-0.4,-0.5,-0.7
2017-02-20 03:42:00,1487536920000,-0.5,-0.5,-0.7
2017-02-20 03:42:00,1487536920000,-0.2,-0.6,-0.8
2017-02-20 03:42:00,1487536920000,-0.3,-0.4,-0.8
2017-02-20 03:42:00,1487536920000,+0.0,-0.5,-0.8
2017-02-20 03:42:00,1487536920000,-0.3,-0.4,-0.8
2017-02-20 03:42:00,1487536920000,-0.3,-0.5,-0.7
2017-02-20 03:42:00,1487536920000,-0.2,-0.5,-0.8
2017-02-20 03:43:00,1487536980000,-0.3,-0.5,-0.8
2017-02-20 03:43:00,1487536980000,-0.3,-0.5,-0.8
2017-02-20 03:43:00,1487536980000,-0.2,-0.5,-0.8
2017-02-20 03:43:00,1487536980000,-0.1,-0.5,-0.9
2017-02-20 03:43:00,1487536980000,-0.2,-0.4,-0.9
2017-02-20 03:43:00,1487536980000,-0.4,-0.8,-0.4
2017-02-20 03:43:00,1487536980000,-0.6,-0.7,+0.6
2017-02-20 03:43:00,1487536980000,+0.2,-0.5,-0.8
2017-02-20 03:43:00,1487536980000,-0.8,-0.6,+1.1
2017-02-20 03:43:00,1487536980000,-0.3,-0.4,-0.9
2017-02-20 03:43:00,1487536980000,-0.5,-0.3,-0.7
2017-02-20 03:43:00,1487536980000,-0.6,-0.3,-0.6
2017-02-20 03:43:00,1487536980000,-0.3,-0.2,-0.8
2017-02-20 03:43:00,1487536980000,-1.0,-0.4,+0.5
2017-02-20 03:43:00,1487536980000,-0.6,-0.3,-0.7
2017-02-20 03:43:00,1487536980000,-0.6,-0.3,-0.6
2017-02-20 03:43:00,1487536980000,-0.2,-0.6,-0.8
2017-02-20 03:43:00,1487536980000,-0.1,-0.6,-0.8
2017-02-20 03:43:00,1487536980000,-0.2,-0.5,-0.8
2017-02-20 03:43:00,1487536980000,-0.2,-0.5,-0.8
2017-02-20 03:43:00,1487536980000,+0.0,-0.5,-0.8
2017-02-20 03:43:00,1487536980000,+0.1,-0.4,-0.8
2017-02-20 03:43:00,1487536980000,-0.3,-0.5,-0.7
2017-02-20 03:43:00,1487536980000,-0.3,-0.5,-0.8
2017-02-20 03:43:00,1487536980000,-0.6,-0.8,-0.1
2017-02-20 03:43:00,1487536980000,-0.7,-0.7,-0.1
2017-02-20 03:43:00,1487536980000,-0.7,-0.7,-0.1
2017-02-20 03:43:00,1487536980000,-0.7,-0.6,-0.1
2017-02-20 03:43:00,1487536980000,-0.7,-0.6,-0.1
2017-02-20 03:43:00,1487536980000,-0.7,-0.6,-0.1
2017-02-20 03:43:00,1487536980000,-0.7,-0.6,-0.1
2017-02-20 03:43:00,1487536980000,-0.7,-0.6,-0.1
2017-02-20 03:43:00,1487536980000,-0.7,-0.6,-0.2
2017-02-20 03:43:00,1487536980000,-0.7,-0.6,-0.2
2017-02-20 03:43:00,1487536980000,-0.7,-0.6,-0.2
2017-02-20 03:43:00,1487536980000,-0.3,-0.7,-0.6
2017-02-20 03:43:00,1487536980000,-0.3,-0.7,-0.6
2017-02-20 03:43:00,1487536980000,-0.3,-0.7,-0.6
2017-02-20 03:43:00,1487536980000,-0.3,-0.7,-0.6
2017-02-20 03:43:00,1487536980000,-0.4,-0.7,-0.6
2017-02-20 03:43:00,1487536980000,-0.1,-0.6,-0.7
2017-02-20 03:43:00,1487536980000,-0.1,-0.7,-0.7
2017-02-20 03:43:00,1487536980000,-0.2,-0.8,-0.5
2017-02-20 03:43:00,1487536980000,-0.0,-0.7,-0.7
2017-02-20 03:44:00,1487537040000,-0.2,-0.7,-0.7
2017-02-20 03:44:00,1487537040000,-0.1,-0.8,-0.5
2017-02-20 03:44:00,1487537040000,-0.1,-0.8,-0.6
2017-02-20 03:44:00,1487537040000,-0.1,-0.8,-0.6
2017-02-20 03:44:00,1487537040000,-0.8,-0.7,+0.0
2017-02-20 03:44:00,1487537040000,-0.1,-0.8,-0.7
2017-02-20 03:44:00,1487537040000,+0.3,-0.1,-0.9
2017-02-20 03:44:00,1487537040000,-0.7,-0.2,-0.9
2017-02-20 03:44:00,1487537040000,-0.4,-0.1,-0.9
2017-02-20 03:44:00,1487537040000,-0.3,-0.1,-0.9
2017-02-20 03:44:00,1487537040000,-0.4,-0.2,-0.8
2017-02-20 03:44:00,1487537040000,-0.4,-0.1,-0.8
2017-02-20 03:44:00,1487537040000,-0.4,-0.1,-0.9
2017-02-20 03:44:00,1487537040000,-0.4,-0.2,-0.8
2017-02-20 03:44:00,1487537040000,-0.4,-0.2,-0.8
2017-02-20 03:44:00,1487537040000,-0.4,-0.2,-0.8
2017-02-20 03:44:00,1487537040000,-0.4,-0.2,-0.8
2017-02-20 03:44:00,1487537040000,-0.4,-0.1,-0.8
2017-02-20 03:44:00,1487537040000,-0.4,-0.1,-0.8
2017-02-20 03:44:00,1487537040000,-0.4,-0.1,-0.8
2017-02-20 03:44:00,1487537040000,-0.1,-0.1,-1.0
2017-02-20 03:44:00,1487537040000,-0.2,-0.2,-0.9
2017-02-20 03:44:00,1487537040000,-0.2,-0.5,-0.8
2017-02-20 03:44:00,1487537040000,-0.4,-0.2,-0.9
2017-02-20 03:44:00,1487537040000,-0.4,-0.2,-0.8
2017-02-20 03:44:00,1487537040000,-0.6,-0.2,-0.8
2017-02-20 03:44:00,1487537040000,-0.5,-0.2,-0.8
2017-02-20 03:44:00,1487537040000,-0.5,-0.2,-0.8
2017-02-20 03:44:00,1487537040000,-0.5,-0.2,-0.8
2017-02-20 03:44:00,1487537040000,-0.5,-0.2,-0.8
2017-02-20 03:44:00,1487537040000,-0.5,-0.2,-0.8
2017-02-20 03:44:00,1487537040000,-0.5,-0.2,-0.8
2017-02-20 03:44:00,1487537040000,-0.6,-0.1,-0.6
2017-02-20 03:44:00,1487537040000,-0.4,-0.1,-0.9
2017-02-20 03:44:00,1487537040000,-0.4,-0.1,-0.9
2017-02-20 03:44:00,1487537040000,-0.4,-0.1,-0.8
2017-02-20 03:44:00,1487537040000,-0.4,-0.1,-0.8
2017-02-20 03:44:00,1487537040000,-0.4,-0.1,-0.8
2017-02-20 03:44:00,1487537040000,-0.5,-0.1,-0.8
2017-02-20 03:44:00,1487537040000,-0.4,-0.1,-0.8
2017-02-20 03:44:00,1487537040000,-0.4,-0.2,-0.8
2017-02-20 03:44:00,1487537040000,-0.4,-0.1,-0.8
2017-02-20 03:44:00,1487537040000,-0.2,-0.7,-0.6
2017-02-20 03:44:00,1487537040000,+0.0,-0.6,-0.7
2017-02-20 03:44:00,1487537040000,+0.1,-0.6,-0.7
2017-02-20 03:44:00,1487537040000,-0.2,-0.7,-0.6
2017-02-20 03:44:00,1487537040000,-0.2,-0.6,-0.7
2017-02-20 03:44:00,1487537040000,+0.4,-0.4,-0.6
2017-02-20 03:44:00,1487537040000,+0.2,-0.6,-0.7
2017-02-20 03:45:00,1487537100000,+0.0,-0.8,-0.4
2017-02-20 03:45:00,1487537100000,-0.3,-0.2,-0.9
2017-02-20 03:45:00,1487537100000,-0.5,-0.1,-1.0
2017-02-20 03:45:00,1487537100000,-0.5,-0.2,-0.8
2017-02-20 03:45:00,1487537100000,-0.7,+0.0,-1.0
2017-02-20 03:45:00,1487537100000,-0.1,+1.0,-0.2
2017-02-20 03:45:00,1487537100000,-0.4,+0.2,-0.8
2017-02-20 03:45:00,1487537100000,-0.4,+0.1,-0.8
2017-02-20 03:45:00,1487537100000,-0.3,+0.0,-0.9
2017-02-20 03:45:00,1487537100000,-0.3,+0.0,-0.9
2017-02-20 03:45:00,1487537100000,-0.2,+0.0,-0.9
2017-02-20 03:45:00,1487537100000,-0.3,+0.0,-0.9
2017-02-20 03:45:00,1487537100000,-0.3,+0.0,-0.9
2017-02-20 03:45:00,1487537100000,-0.3,+0.0,-0.9
2017-02-20 03:45:00,1487537100000,-0.3,+0.0,-0.9
2017-02-20 03:45:00,1487537100000,-0.3,+0.0,-0.9
2017-02-20 03:45:00,1487537100000,-0.6,-0.1,-1.1
2017-02-20 03:45:00,1487537100000,-0.6,-0.7,-0.4
2017-02-20 03:45:00,1487537100000,-0.4,-0.3,-0.8
2017-02-20 03:45:00,1487537100000,-0.3,-0.2,-0.9
2017-02-20 03:45:00,1487537100000,-0.3,-0.3,-0.9
2017-02-20 03:45:00,1487537100000,-0.3,-0.3,-0.9
2017-02-20 03:45:00,1487537100000,-0.3,-0.2,-0.9
2017-02-20 03:45:00,1487537100000,-0.3,-0.2,-0.9
2017-02-20 03:45:00,1487537100000,-0.3,-0.3,-0.9
2017-02-20 03:45:00,1487537100000,-0.3,-0.3,-0.9
2017-02-20 03:45:00,1487537100000,-0.3,-0.3,-0.9
2017-02-20 03:45:00,1487537100000,-0.3,-0.3,-0.9
2017-02-20 03:45:00,1487537100000,-0.3,-0.3,-0.9
2017-02-20 03:45:00,1487537100000,-0.3,-0.3,-0.9
2017-02-20 03:45:00,1487537100000,-0.3,-0.3,-0.9
2017-02-20 03:45:00,1487537100000,-0.3,-0.3,-0.9
2017-02-20 03:45:00,1487537100000,-0.3,-0.3,-0.9
2017-02-20 03:45:00,1487537100000,-0.3,-0.2,-0.8
2017-02-20 03:45:00,1487537100000,-0.4,+1.0,-0.4
2017-02-20 03:45:00,1487537100000,+0.1,+1.0,-0.1
2017-02-20 03:45:00,1487537100000,-0.5,+0.0,-0.8
2017-02-20 03:45:00,1487537100000,-0.3,+0.1,-0.9
2017-02-20 03:45:00,1487537100000,-0.4,+0.1,-0.9
2017-02-20 03:45:00,1487537100000,-0.4,+0.0,-0.8
2017-02-20 03:45:00,1487537100000,-0.4,+0.0,-0.9
2017-02-20 03:45:00,1487537100000,-0.4,+0.0,-0.9
2017-02-20 03:45:00,1487537100000,-0.4,+0.0,-0.9
2017-02-20 03:45:00,1487537100000,-0.4,+0.0,-0.8
2017-02-20 03:45:00,1487537100000,-0.3,+0.0,-0.9
2017-02-20 03:45:00,1487537100000,-0.4,+0.0,-0.9
2017-02-20 03:46:00,1487537160000,-0.4,+0.0,-0.9
2017-02-20 03:46:00,1487537160000,-0.3,+0.0,-0.9
2017-02-20 03:46:00,1487537160000,-0.4,+0.0,-0.9
2017-02-20 03:46:00,1487537160000,-0.3,+0.0,-0.9
2017-02-20 03:46:00,1487537160000,-0.4,+0.0,-0.8
2017-02-20 03:46:00,1487537160000,-0.4,+0.0,-0.9
2017-02-20 03:46:00,1487537160000,-0.3,+0.0,-0.9
2017-02-20 03:46:00,1487537160000,-0.4,+0.0,-0.9
2017-02-20 03:46:00,1487537160000,-0.4,+0.0,-0.9
2017-02-20 03:46:00,1487537160000,-0.4,+0.0,-0.8
2017-02-20 03:46:00,1487537160000,-0.4,+0.0,-1.0
2017-02-20 03:46:00,1487537160000,-0.4,+0.0,-0.9
2017-02-20 03:46:00,1487537160000,-0.4,+0.0,-0.8
2017-02-20 03:46:00,1487537160000,-0.4,+0.0,-0.8
2017-02-20 03:46:00,1487537160000,-0.5,+0.1,-0.8
2017-02-20 03:46:00,1487537160000,-0.6,-0.3,-0.8
2017-02-20 03:46:00,1487537160000,-0.5,+0.0,-0.8
2017-02-20 03:46:00,1487537160000,-0.2,+0.0,-0.9
2017-02-20 03:46:00,1487537160000,-0.4,+0.0,-0.9
2017-02-20 03:46:00,1487537160000,-0.4,+0.0,-0.9
2017-02-20 03:46:00,1487537160000,-0.3,+0.0,-0.9
2017-02-20 03:46:00,1487537160000,-0.4,+0.0,-0.8
2017-02-20 03:46:00,1487537160000,-0.3,+0.0,-0.9
2017-02-20 03:46:00,1487537160000,-0.4,+0.0,-0.9
2017-02-20 03:46:00,1487537160000,-0.4,-0.0,-0.9
2017-02-20 03:46:00,1487537160000,-0.4,+0.0,-0.9
2017-02-20 03:46:00,1487537160000,-0.4,+0.0,-0.9
2017-02-20 03:46:00,1487537160000,-0.4,+0.0,-0.9
2017-02-20 03:46:00,1487537160000,-0.3,+0.0,-0.9
2017-02-20 03:46:00,1487537160000,-0.4,+0.0,-0.9
2017-02-20 03:46:00,1487537160000,-0.3,+0.0,-0.9
2017-02-20 03:46:00,1487537160000,-0.4,+0.0,-0.9
2017-02-20 03:46:00,1487537160000,-0.3,+0.0,-0.9
2017-02-20 03:46:00,1487537160000,-0.3,+0.0,-0.9
2017-02-20 03:46:00,1487537160000,-0.3,+0.0,-0.9
2017-02-20 03:46:00,1487537160000,-0.3,+0.0,-0.9
2017-02-20 03:46:00,1487537160000,-0.3,+0.0,-0.9
2017-02-20 03:46:00,1487537160000,-0.3,+0.0,-0.9
2017-02-20 03:46:00,1487537160000,-0.4,+0.0,-0.9
2017-02-20 03:46:00,1487537160000,-0.3,+0.0,-0.9
2017-02-20 03:46:00,1487537160000,-0.3,+0.0,-0.9
2017-02-20 03:46:00,1487537160000,-0.3,+0.0,-0.9
2017-02-20 03:47:00,1487537220000,-0.2,+0.0,-0.9
2017-02-20 03:47:00,1487537220000,-0.3,+0.0,-0.9
2017-02-20 03:47:00,1487537220000,-0.3,+0.0,-0.9
2017-02-20 03:47:00,1487537220000,-0.3,+0.0,-0.9
2017-02-20 03:47:00,1487537220000,-0.3,+0.0,-0.9
2017-02-20 03:47:00,1487537220000,-0.3,+0.0,-0.9
2017-02-20 03:47:00,1487537220000,-0.3,+0.0,-0.9
2017-02-20 03:47:00,1487537220000,-0.4,+0.0,-0.9
2017-02-20 03:47:00,1487537220000,-0.3,+0.0,-0.9
2017-02-20 03:47:00,1487537220000,-0.4,+0.0,-0.9
2017-02-20 03:47:00,1487537220000,-0.3,+0.0,-0.9
2017-02-20 03:47:00,1487537220000,-0.2,+0.0,-0.9
2017-02-20 03:47:00,1487537220000,-0.3,+0.0,-0.9
2017-02-20 03:47:00,1487537220000,-0.2,+0.0,-0.9
2017-02-20 03:47:00,1487537220000,-0.3,+0.0,-0.9
2017-02-20 03:47:00,1487537220000,-0.3,+0.0,-0.9
2017-02-20 03:47:00,1487537220000,-0.4,+0.0,-0.9
2017-02-20 03:47:00,1487537220000,-0.3,+0.0,-0.9
2017-02-20 03:47:00,1487537220000,-0.3,+0.0,-0.9
2017-02-20 03:47:00,1487537220000,-0.3,+0.0,-0.9
2017-02-20 03:47:00,1487537220000,-0.1,-0.0,-1.0
2017-02-20 03:47:00,1487537220000,-0.2,+0.0,-0.9
2017-02-20 03:47:00,1487537220000,-0.3,+0.0,-0.9
2017-02-20 03:47:00,1487537220000,-0.3,+0.0,-0.9
2017-02-20 03:47:00,1487537220000,-0.3,+0.0,-0.9
2017-02-20 03:47:00,1487537220000,-0.3,+0.0,-0.9
2017-02-20 03:47:00,1487537220000,-0.3,+0.0,-0.9
2017-02-20 03:47:00,1487537220000,-0.3,+0.0,-0.9
2017-02-20 03:47:00,1487537220000,-0.3,+0.0,-0.9
2017-02-20 03:47:00,1487537220000,-0.3,+0.0,-0.9
2017-02-20 03:47:00,1487537220000,-0.3,+0.0,-0.9
2017-02-20 03:47:00,1487537220000,-0.4,+0.0,-0.9
2017-02-20 03:47:00,1487537220000,-0.4,+0.0,-0.9
2017-02-20 03:47:00,1487537220000,-0.3,+0.0,-0.9
2017-02-20 03:47:00,1487537220000,-0.2,+0.0,-0.9
2017-02-20 03:47:00,1487537220000,-0.3,+0.0,-0.9
2017-02-20 03:47:00,1487537220000,-0.3,+0.0,-0.9
2017-02-20 03:47:00,1487537220000,-0.3,+0.0,-0.9
2017-02-20 03:47:00,1487537220000,-0.3,+0.0,-0.9
2017-02-20 03:48:00,1487537280000,-0.3,+0.0,-0.9
2017-02-20 03:48:00,1487537280000,-0.3,+0.0,-0.9
2017-02-20 03:48:00,1487537280000,-0.3,+0.0,-0.9
2017-02-20 03:48:00,1487537280000,-0.3,+0.0,-0.9
2017-02-20 03:48:00,1487537280000,-0.3,+0.0,-0.9
2017-02-20 03:48:00,1487537280000,-0.3,+0.0,-0.9
2017-02-20 03:48:00,1487537280000,-0.3,+0.0,-0.9
2017-02-20 03:48:00,1487537280000,-0.3,+0.0,-0.9
2017-02-20 03:48:00,1487537280000,-0.3,+0.0,-0.9
2017-02-20 03:48:00,1487537280000,-0.3,+0.0,-0.9
2017-02-20 03:48:00,1487537280000,-0.3,+0.0,-0.9
2017-02-20 03:48:00,1487537280000,-0.3,+0.0,-0.9
2017-02-20 03:48:00,1487537280000,-0.3,+0.0,-0.9
2017-02-20 03:48:00,1487537280000,-0.4,+0.0,-0.9
2017-02-20 03:48:00,1487537280000,+0.1,+0.1,-1.0
2017-02-20 03:48:00,1487537280000,-0.3,+0.0,-0.9
2017-02-20 03:48:00,1487537280000,-0.3,+0.0,-0.9
2017-02-20 03:48:00,1487537280000,-0.3,+0.0,-0.9
2017-02-20 03:48:00,1487537280000,-0.3,+0.0,-0.9
2017-02-20 03:48:00,1487537280000,-0.3,+0.0,-0.9
2017-02-20 03:48:00,1487537280000,-0.5,+0.0,-0.7
2017-02-20 03:48:00,1487537280000,-0.4,+0.0,-0.8
2017-02-20 03:48:00,1487537280000,-0.3,+0.0,-0.9
2017-02-20 03:48:00,1487537280000,-0.3,+0.0,-0.9
2017-02-20 03:48:00,1487537280000,-0.4,+0.0,-0.9
2017-02-20 03:48:00,1487537280000,-0.4,+0.0,-0.9
2017-02-20 03:48:00,1487537280000,-0.3,+0.0,-0.9
2017-02-20 03:48:00,1487537280000,-0.3,+0.0,-0.9
2017-02-20 03:48:00,1487537280000,-0.3,+0.0,-0.9
2017-02-20 03:48:00,1487537280000,-0.3,+0.0,-0.9
2017-02-20 03:48:00,1487537280000,-0.3,+0.0,-0.9
2017-02-20 03:48:00,1487537280000,-0.3,+0.0,-0.9
2017-02-20 03:48:00,1487537280000,-0.3,+0.0,-0.9
2017-02-20 03:48:00,1487537280000,-0.3,+0.0,-0.9
2017-02-20 03:48:00,1487537280000,-0.3,+0.0,-0.9
2017-02-20 03:48:00,1487537280000,-0.3,+0.0,-0.9
2017-02-20 03:48:00,1487537280000,-0.4,+0.0,-0.9
2017-02-20 03:48:00,1487537280000,-0.3,+0.0,-0.9
2017-02-20 03:48:00,1487537280000,-0.4,+0.0,-0.9
2017-02-20 03:48:00,1487537280000,-0.3,+0.0,-0.9
2017-02-20 03:48:00,1487537280000,-0.3,-0.2,-1.0
2017-02-20 03:48:00,1487537280000,-0.4,-0.3,-0.8
2017-02-20 03:48:00,1487537280000,-0.3,-0.2,-0.9
2017-02-20 03:48:00,1487537280000,-0.3,-0.3,-1.0
2017-02-20 03:49:00,1487537340000,-0.4,-0.3,-0.8
2017-02-20 03:49:00,1487537340000,-0.4,-0.3,-0.8
2017-02-20 03:49:00,1487537340000,-0.4,-0.3,-0.8
2017-02-20 03:49:00,1487537340000,-0.4,-0.3,-0.8
2017-02-20 03:49:00,1487537340000,-0.4,-0.3,-0.8
2017-02-20 03:49:00,1487537340000,-0.4,-0.3,-0.8
2017-02-20 03:49:00,1487537340000,-0.4,-0.3,-0.8
2017-02-20 03:49:00,1487537340000,-0.4,-0.3,-0.8
2017-02-20 03:49:00,1487537340000,-0.4,-0.4,-0.8
2017-02-20 03:49:00,1487537340000,-0.4,-0.4,-0.8
2017-02-20 03:49:00,1487537340000,-0.4,-0.4,-0.8
2017-02-20 03:49:00,1487537340000,-0.4,-0.4,-0.8
2017-02-20 03:49:00,1487537340000,-0.4,-0.4,-0.8
2017-02-20 03:49:00,1487537340000,-0.4,-0.4,-0.8
2017-02-20 03:49:00,1487537340000,-0.4,-0.3,-0.8
2017-02-20 03:49:00,1487537340000,-0.4,-0.3,-0.8
2017-02-20 03:49:00,1487537340000,-0.4,-0.4,-0.8
2017-02-20 03:49:00,1487537340000,-0.1,-0.4,-0.9
2017-02-20 03:49:00,1487537340000,-0.4,-0.4,-0.8
2017-02-20 03:49:00,1487537340000,-0.4,-0.3,-0.8
2017-02-20 03:49:00,1487537340000,-0.4,-0.4,-0.8
2017-02-20 03:49:00,1487537340000,-0.4,-0.4,-0.8
2017-02-20 03:49:00,1487537340000,-0.4,-0.4,-0.8
2017-02-20 03:49:00,1487537340000,-0.4,-0.4,-0.8
2017-02-20 03:49:00,1487537340000,-0.4,-0.4,-0.8
2017-02-20 03:49:00,1487537340000,-0.4,-0.4,-0.8
2017-02-20 03:49:00,1487537340000,-0.4,-0.4,-0.8
2017-02-20 03:49:00,1487537340000,-0.4,-0.4,-0.8
2017-02-20 03:49:00,1487537340000,-0.4,-0.4,-0.8
2017-02-20 03:49:00,1487537340000,-0.4,-0.4,-0.8
2017-02-20 03:49:00,1487537340000,-0.4,-0.4,-0.8
2017-02-20 03:49:00,1487537340000,-0.4,-0.4,-0.8
2017-02-20 03:49:00,1487537340000,-0.4,-0.4,-0.8
2017-02-20 03:49:00,1487537340000,-0.4,-0.4,-0.8
2017-02-20 03:49:00,1487537340000,-0.4,-0.4,-0.8
2017-02-20 03:49:00,1487537340000,-0.4,-0.4,-0.8
2017-02-20 03:49:00,1487537340000,-0.4,-0.4,-0.8
2017-02-20 03:49:00,1487537340000,-0.4,-0.4,-0.8
2017-02-20 03:49:00,1487537340000,-0.4,-0.4,-0.8
2017-02-20 03:49:00,1487537340000,-0.4,-0.4,-0.8
2017-02-20 03:49:00,1487537340000,-0.4,-0.4,-0.8
2017-02-20 03:49:00,1487537340000,-0.4,-0.4,-0.8
2017-02-20 03:49:00,1487537340000,-0.4,-0.4,-0.8
2017-02-20 03:49:00,1487537340000,-0.4,-0.4,-0.8
2017-02-20 03:49:00,1487537340000,-0.4,-0.4,-0.8
2017-02-20 03:49:00,1487537340000,-0.4,-0.4,-0.8
2017-02-20 03:49:00,1487537340000,-0.4,-0.4,-0.8
2017-02-20 03:49:00,1487537340000,-0.4,-0.4,-0.8
2017-02-20 03:49:00,1487537340000,-0.4,-0.4,-0.8
2017-02-20 03:49:00,1487537340000,-0.4,-0.4,-0.8
2017-02-20 03:50:00,1487537400000,-0.4,-0.4,-0.8
2017-02-20 03:50:00,1487537400000,-0.4,-0.4,-0.8
2017-02-20 03:50:00,1487537400000,-0.4,-0.4,-0.8
2017-02-20 03:50:00,1487537400000,-0.5,-0.4,-0.7
2017-02-20 03:50:00,1487537400000,-0.4,-0.4,-0.8
2017-02-20 03:50:00,1487537400000,-0.4,-0.4,-0.8
2017-02-20 03:50:00,1487537400000,-0.4,-0.3,-0.8
2017-02-20 03:50:00,1487537400000,-0.4,-0.4,-0.8
2017-02-20 03:50:00,1487537400000,-0.4,-0.4,-0.8
2017-02-20 03:50:00,1487537400000,-0.4,-0.4,-0.8
2017-02-20 03:50:00,1487537400000,-0.4,-0.4,-0.8
2017-02-20 03:50:00,1487537400000,-0.4,-0.4,-0.8
2017-02-20 03:50:00,1487537400000,-0.4,-0.4,-0.8
2017-02-20 03:50:00,1487537400000,-0.4,-0.4,-0.8
2017-02-20 03:50:00,1487537400000,-0.4,-0.4,-0.8
2017-02-20 03:50:00,1487537400000,-0.5,-0.5,-0.7
2017-02-20 03:50:00,1487537400000,-0.4,-0.5,-0.7
2017-02-20 03:50:00,1487537400000,-0.4,-0.5,-0.7
2017-02-20 03:50:00,1487537400000,-0.4,-0.5,-0.7
2017-02-20 03:50:00,1487537400000,-0.4,-0.5,-0.7
2017-02-20 03:50:00,1487537400000,-0.4,-0.5,-0.7
2017-02-20 03:50:00,1487537400000,-0.4,-0.5,-0.7
2017-02-20 03:50:00,1487537400000,-0.4,-0.4,-0.8
2017-02-20 03:50:00,1487537400000,-0.1,-0.3,-0.2
2017-02-20 03:50:00,1487537400000,-0.4,-0.4,-0.8
2017-02-20 03:50:00,1487537400000,-0.4,-0.4,-0.8
2017-02-20 03:50:00,1487537400000,-0.4,-0.4,-0.8
